"Identical","LAB_SEED","Orientation1","Orientation2","PPList","Picture1","Picture2","acc","accuracy","average_response_time","avg_rt","background","bidi","canvas_backend","clock_backend","color_backend","compensation","coordinates","correct","correct_Pictures_response","correct_Start_E","correct_Target_response_Prac","correct_Welcome_PP_E","correct_count","correct_response","count_Check_This","count_Disable_Mouse","count_EXP","count_LAB_SEED","count_Language_Selection","count_List_Select","count_List_Selection","count_Pictures_Break","count_Pictures_End","count_Pictures_Exp","count_Pictures_Fixation","count_Pictures_Fixation_Prac","count_Pictures_Prac","count_Pictures_Start","count_Pictures_Target","count_Pictures_Trial","count_Pictures_Welcome","count_Pictures_loop","count_Pictures_response","count_Pictures_response_correct","count_Pictures_response_noans","count_Pictures_response_wrong","count_Post","count_Prac","count_Prac_Count_1","count_Prac_Reset","count_Prac_Trial","count_Prac_loop","count_Prac_seq","count_Prac_setup","count_Start_C","count_Start_E","count_Target_Prac","count_Target_response_Prac","count_Target_response_correct_Prac","count_Target_response_noans_Prac_1","count_Target_response_wrong_Prac_1","count_Trial_logger","count_Welcome_PP_C","count_Welcome_PP_E","count_postdata_C","count_postdata_E","datetime","description","disable_garbage_collection","empty_column","experiment_file","experiment_path","font_bold","font_family","font_italic","font_size","font_underline","foreground","form_clicks","form_response","fullscreen","gender","height","keyboard_backend","language1","language2","live_row","live_row_Pictures_loop","live_row_Prac","live_row_Prac_loop","logfile","month","mouse_backend","opensesame_codename","opensesame_version","osf_always_upload_experiment","osf_id","repeat_cycle","reset_loop","response","response_Pictures_Break","response_Pictures_End","response_Pictures_response","response_Start_C","response_Start_E","response_Target_response_Prac","response_Welcome_PP_C","response_Welcome_PP_E","response_time","response_time_Pictures_Break","response_time_Pictures_End","response_time_Pictures_response","response_time_Start_C","response_time_Start_E","response_time_Target_response_Prac","response_time_Welcome_PP_C","response_time_Welcome_PP_E","round_decimals","sampler_backend","sound_buf_size","sound_channels","sound_freq","sound_sample_size","start","subject_nr","subject_parity","time_Check_This","time_Disable_Mouse","time_EXP","time_LAB_SEED","time_Language_Selection","time_List_Select","time_List_Selection","time_Pictures_Break","time_Pictures_End","time_Pictures_Exp","time_Pictures_Fixation","time_Pictures_Fixation_Prac","time_Pictures_Prac","time_Pictures_Start","time_Pictures_Target","time_Pictures_Trial","time_Pictures_Welcome","time_Pictures_loop","time_Pictures_response","time_Pictures_response_correct","time_Pictures_response_noans","time_Pictures_response_wrong","time_Post","time_Prac","time_Prac_Count_1","time_Prac_Reset","time_Prac_Trial","time_Prac_loop","time_Prac_seq","time_Prac_setup","time_Start_C","time_Start_E","time_Target_Prac","time_Target_response_Prac","time_Target_response_correct_Prac","time_Target_response_noans_Prac_1","time_Target_response_wrong_Prac_1","time_Trial_logger","time_Welcome_PP_C","time_Welcome_PP_E","time_postdata_C","time_postdata_E","title","total_correct","total_response_time","total_responses","uniform_coordinates","width","year"
"F","100","F","F","PP_LIST3.csv","watch.jpg","skirt.jpg","100","100","521.285714286","521.285714286","#ffffff","yes","legacy","legacy","legacy","0","uniform","1","1","undefined","1","undefined","6","f","0","0","0","0","0","0","0","NA","0","0","0","5","0","0","0","0","0","0","0","0","0","0","NA","0","5","0","5","0","0","0","0","0","5","5","5","5","5","0","0","0","0","0","02/08/19 23:04:12","Matching Tasks","yes","","OrientationCrossLanguages_2018PSA_PP_1.1.0.osexp","D:/core/Research/OpenSci/PSA/2018/2017_submission_orientation_generalicity/Script","no","chinese-japanese-korean","no","18","no","#0000ff","no","Ok","no","Male","768","legacy","yes","no","0","0","1","5","D:/core/Research/OpenSci/PSA/2018/2017_submission_orientation_generalicity/EXPDATA/raw_data/PP/subject-3.csv","6","legacy","Kafkaesque Koffka","3.2.6","yes","5a7ce671e83246000deafe81","0","0","f","NA","NA","f","NA","space","f","NA","space","864","NA","NA","864","NA","828","284","NA","736","2","legacy","1024","2","48000","-16","EXP","3","odd","NA","20268","1280","1282","4151","20259","20258","NA","NA","31090","31169","28928","21015","30251","31670","31168","20270","31090","31670","32536","NA","NA","NA","21016","30216","21029","28927","21029","21029","21016","NA","30253","29430","29430","29716","NA","NA","33036","NA","20271","NA","5623","Orientation_PSA2018","7","3649","7","yes","1024","1997"
"F","100","F","F","PP_LIST3.csv","wrench.jpg","piano.jpg","87.5","87.5","491.375","491.375","#ffffff","yes","legacy","legacy","legacy","0","uniform","0","0","undefined","1","undefined","6","f","0","0","0","0","0","0","0","NA","1","0","1","5","0","0","1","1","0","0","1","1","1","1","NA","0","5","0","5","0","0","0","0","0","5","5","5","5","5","1","0","0","0","0","02/08/19 23:04:12","Matching Tasks","yes","","OrientationCrossLanguages_2018PSA_PP_1.1.0.osexp","D:/core/Research/OpenSci/PSA/2018/2017_submission_orientation_generalicity/Script","no","chinese-japanese-korean","no","18","no","#0000ff","no","Ok","no","Male","768","legacy","yes","no","1","1","1","5","D:/core/Research/OpenSci/PSA/2018/2017_submission_orientation_generalicity/EXPDATA/raw_data/PP/subject-3.csv","6","legacy","Kafkaesque Koffka","3.2.6","yes","5a7ce671e83246000deafe81","0","0","j","NA","NA","j","NA","space","f","NA","space","282","NA","NA","282","NA","828","284","NA","736","2","legacy","1024","2","48000","-16","EXP","3","odd","NA","20268","1280","1282","4151","20259","20258","NA","NA","31090","33140","28928","21015","30251","33641","33138","20270","31090","33641","32536","NA","33925","NA","21016","30216","21029","28927","21029","21029","21016","NA","30253","29430","29430","29716","NA","NA","34425","NA","20271","NA","5623","Orientation_PSA2018","7","3931","8","yes","1024","1997"
"N","100","V","H","PP_LIST3.csv","clothespinV.jpg","clothespinH.jpg","88.8888888889","88.8888888889","472.666666667","472.666666667","#ffffff","yes","legacy","legacy","legacy","0","uniform","1","1","undefined","1","undefined","6","j","0","0","0","0","0","0","0","NA","2","0","2","5","0","0","2","2","0","0","2","2","2","2","NA","0","5","0","5","0","0","0","0","0","5","5","5","5","5","2","0","0","0","0","02/08/19 23:04:12","Matching Tasks","yes","","OrientationCrossLanguages_2018PSA_PP_1.1.0.osexp","D:/core/Research/OpenSci/PSA/2018/2017_submission_orientation_generalicity/Script","no","chinese-japanese-korean","no","18","no","#0000ff","no","Ok","no","Male","768","legacy","yes","no","2","2","1","5","D:/core/Research/OpenSci/PSA/2018/2017_submission_orientation_generalicity/EXPDATA/raw_data/PP/subject-3.csv","6","legacy","Kafkaesque Koffka","3.2.6","yes","5a7ce671e83246000deafe81","0","0","j","NA","NA","j","NA","space","f","NA","space","323","NA","NA","323","NA","828","284","NA","736","2","legacy","1024","2","48000","-16","EXP","3","odd","NA","20268","1280","1282","4151","20259","20258","NA","NA","31090","34529","28928","21015","30251","35035","34528","20270","31090","35039","35364","NA","33925","NA","21016","30216","21029","28927","21029","21029","21016","NA","30253","29430","29430","29716","NA","NA","35864","NA","20271","NA","5623","Orientation_PSA2018","8","4254","9","yes","1024","1997"
"N","100","V","H","PP_LIST3.csv","crayonV.jpg","crayonH.jpg","90","90","462.3","462.3","#ffffff","yes","legacy","legacy","legacy","0","uniform","1","1","undefined","1","undefined","6","j","0","0","0","0","0","0","0","NA","3","0","3","5","0","0","3","3","0","0","3","3","3","3","NA","0","5","0","5","0","0","0","0","0","5","5","5","5","5","3","0","0","0","0","02/08/19 23:04:12","Matching Tasks","yes","","OrientationCrossLanguages_2018PSA_PP_1.1.0.osexp","D:/core/Research/OpenSci/PSA/2018/2017_submission_orientation_generalicity/Script","no","chinese-japanese-korean","no","18","no","#0000ff","no","Ok","no","Male","768","legacy","yes","no","3","3","1","5","D:/core/Research/OpenSci/PSA/2018/2017_submission_orientation_generalicity/EXPDATA/raw_data/PP/subject-3.csv","6","legacy","Kafkaesque Koffka","3.2.6","yes","5a7ce671e83246000deafe81","0","0","j","NA","NA","j","NA","space","f","NA","space","369","NA","NA","369","NA","828","284","NA","736","2","legacy","1024","2","48000","-16","EXP","3","odd","NA","20268","1280","1282","4151","20259","20258","NA","NA","31090","35967","28928","21015","30251","36468","35965","20270","31090","36468","36838","NA","33925","NA","21016","30216","21029","28927","21029","21029","21016","NA","30253","29430","29430","29716","NA","NA","37339","NA","20271","NA","5623","Orientation_PSA2018","9","4623","10","yes","1024","1997"
"F","100","F","F","PP_LIST3.csv","tiger.jpg","wndmil.jpg","81.8181818182","81.8181818182","448.454545455","448.454545455","#ffffff","yes","legacy","legacy","legacy","0","uniform","0","0","undefined","1","undefined","6","f","0","0","0","0","0","0","0","NA","4","0","4","5","0","0","4","4","0","0","4","4","4","4","NA","0","5","0","5","0","0","0","0","0","5","5","5","5","5","4","0","0","0","0","02/08/19 23:04:12","Matching Tasks","yes","","OrientationCrossLanguages_2018PSA_PP_1.1.0.osexp","D:/core/Research/OpenSci/PSA/2018/2017_submission_orientation_generalicity/Script","no","chinese-japanese-korean","no","18","no","#0000ff","no","Ok","no","Male","768","legacy","yes","no","4","4","1","5","D:/core/Research/OpenSci/PSA/2018/2017_submission_orientation_generalicity/EXPDATA/raw_data/PP/subject-3.csv","6","legacy","Kafkaesque Koffka","3.2.6","yes","5a7ce671e83246000deafe81","0","0","j","NA","NA","j","NA","space","f","NA","space","310","NA","NA","310","NA","828","284","NA","736","2","legacy","1024","2","48000","-16","EXP","3","odd","NA","20268","1280","1282","4151","20259","20258","NA","NA","31090","37436","28928","21015","30251","37937","37435","20270","31090","37937","36838","NA","38250","NA","21016","30216","21029","28927","21029","21029","21016","NA","30253","29430","29430","29716","NA","NA","38750","NA","20271","NA","5623","Orientation_PSA2018","9","4933","11","yes","1024","1997"
"F","100","F","F","PP_LIST3.csv","spider.jpg","couch.jpg","75","75","437.583333333","437.583333333","#ffffff","yes","legacy","legacy","legacy","0","uniform","0","0","undefined","1","undefined","6","f","0","0","0","0","0","0","0","NA","5","0","5","5","0","0","5","5","0","0","5","5","5","5","NA","0","5","0","5","0","0","0","0","0","5","5","5","5","5","5","0","0","0","0","02/08/19 23:04:12","Matching Tasks","yes","","OrientationCrossLanguages_2018PSA_PP_1.1.0.osexp","D:/core/Research/OpenSci/PSA/2018/2017_submission_orientation_generalicity/Script","no","chinese-japanese-korean","no","18","no","#0000ff","no","Ok","no","Male","768","legacy","yes","no","5","5","1","5","D:/core/Research/OpenSci/PSA/2018/2017_submission_orientation_generalicity/EXPDATA/raw_data/PP/subject-3.csv","6","legacy","Kafkaesque Koffka","3.2.6","yes","5a7ce671e83246000deafe81","0","0","j","NA","NA","j","NA","space","f","NA","space","318","NA","NA","318","NA","828","284","NA","736","2","legacy","1024","2","48000","-16","EXP","3","odd","NA","20268","1280","1282","4151","20259","20258","NA","NA","31090","38857","28928","21015","30251","39358","38855","20270","31090","39358","36838","NA","39678","NA","21016","30216","21029","28927","21029","21029","21016","NA","30253","29430","29430","29716","NA","NA","40178","NA","20271","NA","5623","Orientation_PSA2018","9","5251","12","yes","1024","1997"
"N","100","H","V","PP_LIST3.csv","bowlH.jpg","bowlV.jpg","76.9230769231","76.9230769231","434.307692308","434.307692308","#ffffff","yes","legacy","legacy","legacy","0","uniform","1","1","undefined","1","undefined","6","j","0","0","0","0","0","0","0","NA","6","0","6","5","0","0","6","6","0","0","6","6","6","6","NA","0","5","0","5","0","0","0","0","0","5","5","5","5","5","6","0","0","0","0","02/08/19 23:04:12","Matching Tasks","yes","","OrientationCrossLanguages_2018PSA_PP_1.1.0.osexp","D:/core/Research/OpenSci/PSA/2018/2017_submission_orientation_generalicity/Script","no","chinese-japanese-korean","no","18","no","#0000ff","no","Ok","no","Male","768","legacy","yes","no","6","6","1","5","D:/core/Research/OpenSci/PSA/2018/2017_submission_orientation_generalicity/EXPDATA/raw_data/PP/subject-3.csv","6","legacy","Kafkaesque Koffka","3.2.6","yes","5a7ce671e83246000deafe81","0","0","j","NA","NA","j","NA","space","f","NA","space","395","NA","NA","395","NA","828","284","NA","736","2","legacy","1024","2","48000","-16","EXP","3","odd","NA","20268","1280","1282","4151","20259","20258","NA","NA","31090","40289","28928","21015","30251","40790","40288","20270","31090","40790","41187","NA","39678","NA","21016","30216","21029","28927","21029","21029","21016","NA","30253","29430","29430","29716","NA","NA","41687","NA","20271","NA","5623","Orientation_PSA2018","10","5646","13","yes","1024","1997"
"Y","100","H","H","PP_LIST3.csv","glassH.jpg","glassH.jpg","78.5714285714","78.5714285714","425.571428571","425.571428571","#ffffff","yes","legacy","legacy","legacy","0","uniform","1","1","undefined","1","undefined","6","j","0","0","0","0","0","0","0","NA","7","0","7","5","0","0","7","7","0","0","7","7","7","7","NA","0","5","0","5","0","0","0","0","0","5","5","5","5","5","7","0","0","0","0","02/08/19 23:04:12","Matching Tasks","yes","","OrientationCrossLanguages_2018PSA_PP_1.1.0.osexp","D:/core/Research/OpenSci/PSA/2018/2017_submission_orientation_generalicity/Script","no","chinese-japanese-korean","no","18","no","#0000ff","no","Ok","no","Male","768","legacy","yes","no","7","7","1","5","D:/core/Research/OpenSci/PSA/2018/2017_submission_orientation_generalicity/EXPDATA/raw_data/PP/subject-3.csv","6","legacy","Kafkaesque Koffka","3.2.6","yes","5a7ce671e83246000deafe81","0","0","j","NA","NA","j","NA","space","f","NA","space","312","NA","NA","312","NA","828","284","NA","736","2","legacy","1024","2","48000","-16","EXP","3","odd","NA","20268","1280","1282","4151","20259","20258","NA","NA","31090","41792","28928","21015","30251","42297","41791","20270","31090","42297","42611","NA","39678","NA","21016","30216","21029","28927","21029","21029","21016","NA","30253","29430","29430","29716","NA","NA","43111","NA","20271","NA","5623","Orientation_PSA2018","11","5958","14","yes","1024","1997"
"F","100","F","F","PP_LIST3.csv","skirt.jpg","tlphon.jpg","73.3333333333","73.3333333333","417.533333333","417.533333333","#ffffff","yes","legacy","legacy","legacy","0","uniform","0","0","undefined","1","undefined","6","f","0","0","0","0","0","0","0","NA","8","0","8","5","0","0","8","8","0","0","8","8","8","8","NA","0","5","0","5","0","0","0","0","0","5","5","5","5","5","8","0","0","0","0","02/08/19 23:04:12","Matching Tasks","yes","","OrientationCrossLanguages_2018PSA_PP_1.1.0.osexp","D:/core/Research/OpenSci/PSA/2018/2017_submission_orientation_generalicity/Script","no","chinese-japanese-korean","no","18","no","#0000ff","no","Ok","no","Male","768","legacy","yes","no","8","8","1","5","D:/core/Research/OpenSci/PSA/2018/2017_submission_orientation_generalicity/EXPDATA/raw_data/PP/subject-3.csv","6","legacy","Kafkaesque Koffka","3.2.6","yes","5a7ce671e83246000deafe81","0","0","j","NA","NA","j","NA","space","f","NA","space","305","NA","NA","305","NA","828","284","NA","736","2","legacy","1024","2","48000","-16","EXP","3","odd","NA","20268","1280","1282","4151","20259","20258","NA","NA","31090","43213","28928","21015","30251","43714","43212","20270","31090","43715","42611","NA","44022","NA","21016","30216","21029","28927","21029","21029","21016","NA","30253","29430","29430","29716","NA","NA","44522","NA","20271","NA","5623","Orientation_PSA2018","11","6263","15","yes","1024","1997"
"Y","100","H","H","PP_LIST3.csv","ironH.jpg","ironH.jpg","75","75","406.9375","406.9375","#ffffff","yes","legacy","legacy","legacy","0","uniform","1","1","undefined","1","undefined","6","j","0","0","0","0","0","0","0","NA","9","0","9","5","0","0","9","9","0","0","9","9","9","9","NA","0","5","0","5","0","0","0","0","0","5","5","5","5","5","9","0","0","0","0","02/08/19 23:04:12","Matching Tasks","yes","","OrientationCrossLanguages_2018PSA_PP_1.1.0.osexp","D:/core/Research/OpenSci/PSA/2018/2017_submission_orientation_generalicity/Script","no","chinese-japanese-korean","no","18","no","#0000ff","no","Ok","no","Male","768","legacy","yes","no","9","9","1","5","D:/core/Research/OpenSci/PSA/2018/2017_submission_orientation_generalicity/EXPDATA/raw_data/PP/subject-3.csv","6","legacy","Kafkaesque Koffka","3.2.6","yes","5a7ce671e83246000deafe81","0","0","j","NA","NA","j","NA","space","f","NA","space","248","NA","NA","248","NA","828","284","NA","736","2","legacy","1024","2","48000","-16","EXP","3","odd","NA","20268","1280","1282","4151","20259","20258","NA","NA","31090","44655","28928","21015","30251","45156","44654","20270","31090","45156","45406","NA","44022","NA","21016","30216","21029","28927","21029","21029","21016","NA","30253","29430","29430","29716","NA","NA","45906","NA","20271","NA","5623","Orientation_PSA2018","12","6511","16","yes","1024","1997"
"F","100","F","F","PP_LIST3.csv","mitten.jpg","needle.jpg","70.5882352941","70.5882352941","403.647058824","403.647058824","#ffffff","yes","legacy","legacy","legacy","0","uniform","0","0","undefined","1","undefined","6","f","0","0","0","0","0","0","0","NA","10","0","10","5","0","0","10","10","0","0","10","10","10","10","NA","0","5","0","5","0","0","0","0","0","5","5","5","5","5","10","0","0","0","0","02/08/19 23:04:12","Matching Tasks","yes","","OrientationCrossLanguages_2018PSA_PP_1.1.0.osexp","D:/core/Research/OpenSci/PSA/2018/2017_submission_orientation_generalicity/Script","no","chinese-japanese-korean","no","18","no","#0000ff","no","Ok","no","Male","768","legacy","yes","no","10","10","1","5","D:/core/Research/OpenSci/PSA/2018/2017_submission_orientation_generalicity/EXPDATA/raw_data/PP/subject-3.csv","6","legacy","Kafkaesque Koffka","3.2.6","yes","5a7ce671e83246000deafe81","0","0","j","NA","NA","j","NA","space","f","NA","space","351","NA","NA","351","NA","828","284","NA","736","2","legacy","1024","2","48000","-16","EXP","3","odd","NA","20268","1280","1282","4151","20259","20258","NA","NA","31090","46001","28928","21015","30251","46503","46000","20270","31090","46503","45406","NA","46856","NA","21016","30216","21029","28927","21029","21029","21016","NA","30253","29430","29430","29716","NA","NA","47356","NA","20271","NA","5623","Orientation_PSA2018","12","6862","17","yes","1024","1997"
"F","100","F","F","PP_LIST3.csv","stove.jpg","ftball.jpg","66.6666666667","66.6666666667","394.888888889","394.888888889","#ffffff","yes","legacy","legacy","legacy","0","uniform","0","0","undefined","1","undefined","6","f","0","0","0","0","0","0","0","NA","11","0","11","5","0","0","11","11","0","0","11","11","11","11","NA","0","5","0","5","0","0","0","0","0","5","5","5","5","5","11","0","0","0","0","02/08/19 23:04:12","Matching Tasks","yes","","OrientationCrossLanguages_2018PSA_PP_1.1.0.osexp","D:/core/Research/OpenSci/PSA/2018/2017_submission_orientation_generalicity/Script","no","chinese-japanese-korean","no","18","no","#0000ff","no","Ok","no","Male","768","legacy","yes","no","11","11","1","5","D:/core/Research/OpenSci/PSA/2018/2017_submission_orientation_generalicity/EXPDATA/raw_data/PP/subject-3.csv","6","legacy","Kafkaesque Koffka","3.2.6","yes","5a7ce671e83246000deafe81","0","0","j","NA","NA","j","NA","space","f","NA","space","246","NA","NA","246","NA","828","284","NA","736","2","legacy","1024","2","48000","-16","EXP","3","odd","NA","20268","1280","1282","4151","20259","20258","NA","NA","31090","47453","28928","21015","30251","47954","47451","20270","31090","47954","45406","NA","48202","NA","21016","30216","21029","28927","21029","21029","21016","NA","30253","29430","29430","29716","NA","NA","48702","NA","20271","NA","5623","Orientation_PSA2018","12","7108","18","yes","1024","1997"
"F","100","F","F","PP_LIST3.csv","trmpet.jpg","tapedispenser.jpg","63.1578947368","63.1578947368","391.894736842","391.894736842","#ffffff","yes","legacy","legacy","legacy","0","uniform","0","0","undefined","1","undefined","6","f","0","0","0","0","0","0","0","NA","12","0","12","5","0","0","12","12","0","0","12","12","12","12","NA","0","5","0","5","0","0","0","0","0","5","5","5","5","5","12","0","0","0","0","02/08/19 23:04:12","Matching Tasks","yes","","OrientationCrossLanguages_2018PSA_PP_1.1.0.osexp","D:/core/Research/OpenSci/PSA/2018/2017_submission_orientation_generalicity/Script","no","chinese-japanese-korean","no","18","no","#0000ff","no","Ok","no","Male","768","legacy","yes","no","12","12","1","5","D:/core/Research/OpenSci/PSA/2018/2017_submission_orientation_generalicity/EXPDATA/raw_data/PP/subject-3.csv","6","legacy","Kafkaesque Koffka","3.2.6","yes","5a7ce671e83246000deafe81","0","0","j","NA","NA","j","NA","space","f","NA","space","338","NA","NA","338","NA","828","284","NA","736","2","legacy","1024","2","48000","-16","EXP","3","odd","NA","20268","1280","1282","4151","20259","20258","NA","NA","31090","48807","28928","21015","30251","49308","48805","20270","31090","49308","45406","NA","49648","NA","21016","30216","21029","28927","21029","21029","21016","NA","30253","29430","29430","29716","NA","NA","50148","NA","20271","NA","5623","Orientation_PSA2018","12","7446","19","yes","1024","1997"
"N","100","V","H","PP_LIST3.csv","caterpillarV.jpg","caterpillarH.jpg","65","65","383.8","383.8","#ffffff","yes","legacy","legacy","legacy","0","uniform","1","1","undefined","1","undefined","6","j","0","0","0","0","0","0","0","NA","13","0","13","5","0","0","13","13","0","0","13","13","13","13","NA","0","5","0","5","0","0","0","0","0","5","5","5","5","5","13","0","0","0","0","02/08/19 23:04:12","Matching Tasks","yes","","OrientationCrossLanguages_2018PSA_PP_1.1.0.osexp","D:/core/Research/OpenSci/PSA/2018/2017_submission_orientation_generalicity/Script","no","chinese-japanese-korean","no","18","no","#0000ff","no","Ok","no","Male","768","legacy","yes","no","13","13","1","5","D:/core/Research/OpenSci/PSA/2018/2017_submission_orientation_generalicity/EXPDATA/raw_data/PP/subject-3.csv","6","legacy","Kafkaesque Koffka","3.2.6","yes","5a7ce671e83246000deafe81","0","0","j","NA","NA","j","NA","space","f","NA","space","230","NA","NA","230","NA","828","284","NA","736","2","legacy","1024","2","48000","-16","EXP","3","odd","NA","20268","1280","1282","4151","20259","20258","NA","NA","31090","50254","28928","21015","30251","50755","50252","20270","31090","50755","50987","NA","49648","NA","21016","30216","21029","28927","21029","21029","21016","NA","30253","29430","29430","29716","NA","NA","51487","NA","20271","NA","5623","Orientation_PSA2018","13","7676","20","yes","1024","1997"
"F","100","F","F","PP_LIST3.csv","nut.jpg","watch.jpg","61.9047619048","61.9047619048","385.952380952","385.952380952","#ffffff","yes","legacy","legacy","legacy","0","uniform","0","0","undefined","1","undefined","6","f","0","0","0","0","0","0","0","NA","14","0","14","5","0","0","14","14","0","0","14","14","14","14","NA","0","5","0","5","0","0","0","0","0","5","5","5","5","5","14","0","0","0","0","02/08/19 23:04:12","Matching Tasks","yes","","OrientationCrossLanguages_2018PSA_PP_1.1.0.osexp","D:/core/Research/OpenSci/PSA/2018/2017_submission_orientation_generalicity/Script","no","chinese-japanese-korean","no","18","no","#0000ff","no","Ok","no","Male","768","legacy","yes","no","14","14","1","5","D:/core/Research/OpenSci/PSA/2018/2017_submission_orientation_generalicity/EXPDATA/raw_data/PP/subject-3.csv","6","legacy","Kafkaesque Koffka","3.2.6","yes","5a7ce671e83246000deafe81","0","0","j","NA","NA","j","NA","space","f","NA","space","429","NA","NA","429","NA","828","284","NA","736","2","legacy","1024","2","48000","-16","EXP","3","odd","NA","20268","1280","1282","4151","20259","20258","NA","NA","31090","51581","28928","21015","30251","52082","51580","20270","31090","52082","50987","NA","52513","NA","21016","30216","21029","28927","21029","21029","21016","NA","30253","29430","29430","29716","NA","NA","53013","NA","20271","NA","5623","Orientation_PSA2018","13","8105","21","yes","1024","1997"
"N","100","H","V","PP_LIST3.csv","bottleH.jpg","bottleV.jpg","63.6363636364","63.6363636364","385.863636364","385.863636364","#ffffff","yes","legacy","legacy","legacy","0","uniform","1","1","undefined","1","undefined","6","j","0","0","0","0","0","0","0","NA","15","0","15","5","0","0","15","15","0","0","15","15","15","15","NA","0","5","0","5","0","0","0","0","0","5","5","5","5","5","15","0","0","0","0","02/08/19 23:04:12","Matching Tasks","yes","","OrientationCrossLanguages_2018PSA_PP_1.1.0.osexp","D:/core/Research/OpenSci/PSA/2018/2017_submission_orientation_generalicity/Script","no","chinese-japanese-korean","no","18","no","#0000ff","no","Ok","no","Male","768","legacy","yes","no","15","15","1","5","D:/core/Research/OpenSci/PSA/2018/2017_submission_orientation_generalicity/EXPDATA/raw_data/PP/subject-3.csv","6","legacy","Kafkaesque Koffka","3.2.6","yes","5a7ce671e83246000deafe81","0","0","j","NA","NA","j","NA","space","f","NA","space","384","NA","NA","384","NA","828","284","NA","736","2","legacy","1024","2","48000","-16","EXP","3","odd","NA","20268","1280","1282","4151","20259","20258","NA","NA","31090","53115","28928","21015","30251","53617","53114","20270","31090","53617","54003","NA","52513","NA","21016","30216","21029","28927","21029","21029","21016","NA","30253","29430","29430","29716","NA","NA","54503","NA","20271","NA","5623","Orientation_PSA2018","14","8489","22","yes","1024","1997"
"F","100","F","F","PP_LIST3.csv","couch.jpg","spider.jpg","60.8695652174","60.8695652174","379.130434783","379.130434783","#ffffff","yes","legacy","legacy","legacy","0","uniform","0","0","undefined","1","undefined","6","f","0","0","0","0","0","0","0","NA","16","0","16","5","0","0","16","16","0","0","16","16","16","16","NA","0","5","0","5","0","0","0","0","0","5","5","5","5","5","16","0","0","0","0","02/08/19 23:04:12","Matching Tasks","yes","","OrientationCrossLanguages_2018PSA_PP_1.1.0.osexp","D:/core/Research/OpenSci/PSA/2018/2017_submission_orientation_generalicity/Script","no","chinese-japanese-korean","no","18","no","#0000ff","no","Ok","no","Male","768","legacy","yes","no","16","16","1","5","D:/core/Research/OpenSci/PSA/2018/2017_submission_orientation_generalicity/EXPDATA/raw_data/PP/subject-3.csv","6","legacy","Kafkaesque Koffka","3.2.6","yes","5a7ce671e83246000deafe81","0","0","j","NA","NA","j","NA","space","f","NA","space","231","NA","NA","231","NA","828","284","NA","736","2","legacy","1024","2","48000","-16","EXP","3","odd","NA","20268","1280","1282","4151","20259","20258","NA","NA","31090","54599","28928","21015","30251","55100","54598","20270","31090","55100","54003","NA","55333","NA","21016","30216","21029","28927","21029","21029","21016","NA","30253","29430","29430","29716","NA","NA","55833","NA","20271","NA","5623","Orientation_PSA2018","14","8720","23","yes","1024","1997"
"Y","100","H","H","PP_LIST3.csv","guitarH.jpg","guitarH.jpg","62.5","62.5","373.208333333","373.208333333","#ffffff","yes","legacy","legacy","legacy","0","uniform","1","1","undefined","1","undefined","6","j","0","0","0","0","0","0","0","NA","17","0","17","5","0","0","17","17","0","0","17","17","17","17","NA","0","5","0","5","0","0","0","0","0","5","5","5","5","5","17","0","0","0","0","02/08/19 23:04:12","Matching Tasks","yes","","OrientationCrossLanguages_2018PSA_PP_1.1.0.osexp","D:/core/Research/OpenSci/PSA/2018/2017_submission_orientation_generalicity/Script","no","chinese-japanese-korean","no","18","no","#0000ff","no","Ok","no","Male","768","legacy","yes","no","17","17","1","5","D:/core/Research/OpenSci/PSA/2018/2017_submission_orientation_generalicity/EXPDATA/raw_data/PP/subject-3.csv","6","legacy","Kafkaesque Koffka","3.2.6","yes","5a7ce671e83246000deafe81","0","0","j","NA","NA","j","NA","space","f","NA","space","237","NA","NA","237","NA","828","284","NA","736","2","legacy","1024","2","48000","-16","EXP","3","odd","NA","20268","1280","1282","4151","20259","20258","NA","NA","31090","55931","28928","21015","30251","56432","55929","20270","31090","56432","56671","NA","55333","NA","21016","30216","21029","28927","21029","21029","21016","NA","30253","29430","29430","29716","NA","NA","57171","NA","20271","NA","5623","Orientation_PSA2018","15","8957","24","yes","1024","1997"
"F","100","F","F","PP_LIST3.csv","house.jpg","ring.jpg","60","60","363.52","363.52","#ffffff","yes","legacy","legacy","legacy","0","uniform","0","0","undefined","1","undefined","6","f","0","0","0","0","0","0","0","NA","18","0","18","5","0","0","18","18","0","0","18","18","18","18","NA","0","5","0","5","0","0","0","0","0","5","5","5","5","5","18","0","0","0","0","02/08/19 23:04:12","Matching Tasks","yes","","OrientationCrossLanguages_2018PSA_PP_1.1.0.osexp","D:/core/Research/OpenSci/PSA/2018/2017_submission_orientation_generalicity/Script","no","chinese-japanese-korean","no","18","no","#0000ff","no","Ok","no","Male","768","legacy","yes","no","18","18","1","5","D:/core/Research/OpenSci/PSA/2018/2017_submission_orientation_generalicity/EXPDATA/raw_data/PP/subject-3.csv","6","legacy","Kafkaesque Koffka","3.2.6","yes","5a7ce671e83246000deafe81","0","0","j","NA","NA","j","NA","space","f","NA","space","131","NA","NA","131","NA","828","284","NA","736","2","legacy","1024","2","48000","-16","EXP","3","odd","NA","20268","1280","1282","4151","20259","20258","NA","NA","31090","57274","28928","21015","30251","57776","57273","20270","31090","57776","56671","NA","57908","NA","21016","30216","21029","28927","21029","21029","21016","NA","30253","29430","29430","29716","NA","NA","58408","NA","20271","NA","5623","Orientation_PSA2018","15","9088","25","yes","1024","1997"
"F","100","F","F","PP_LIST3.csv","piano.jpg","sutcse.jpg","57.6923076923","57.6923076923","359.076923077","359.076923077","#ffffff","yes","legacy","legacy","legacy","0","uniform","0","0","undefined","1","undefined","6","f","0","0","0","0","0","0","0","NA","19","0","19","5","0","0","19","19","0","0","19","19","19","19","NA","0","5","0","5","0","0","0","0","0","5","5","5","5","5","19","0","0","0","0","02/08/19 23:04:12","Matching Tasks","yes","","OrientationCrossLanguages_2018PSA_PP_1.1.0.osexp","D:/core/Research/OpenSci/PSA/2018/2017_submission_orientation_generalicity/Script","no","chinese-japanese-korean","no","18","no","#0000ff","no","Ok","no","Male","768","legacy","yes","no","19","19","1","5","D:/core/Research/OpenSci/PSA/2018/2017_submission_orientation_generalicity/EXPDATA/raw_data/PP/subject-3.csv","6","legacy","Kafkaesque Koffka","3.2.6","yes","5a7ce671e83246000deafe81","0","0","j","NA","NA","j","NA","space","f","NA","space","248","NA","NA","248","NA","828","284","NA","736","2","legacy","1024","2","48000","-16","EXP","3","odd","NA","20268","1280","1282","4151","20259","20258","NA","NA","31090","58506","28928","21015","30251","59007","58505","20270","31090","59007","56671","NA","59258","NA","21016","30216","21029","28927","21029","21029","21016","NA","30253","29430","29430","29716","NA","NA","59758","NA","20271","NA","5623","Orientation_PSA2018","15","9336","26","yes","1024","1997"
"F","100","F","F","PP_LIST3.csv","umberella.jpg","flower.jpg","55.5555555556","55.5555555556","355.888888889","355.888888889","#ffffff","yes","legacy","legacy","legacy","0","uniform","0","0","undefined","1","undefined","6","f","0","0","0","0","0","0","0","NA","20","0","20","5","0","0","20","20","0","0","20","20","20","20","NA","0","5","0","5","0","0","0","0","0","5","5","5","5","5","20","0","0","0","0","02/08/19 23:04:12","Matching Tasks","yes","","OrientationCrossLanguages_2018PSA_PP_1.1.0.osexp","D:/core/Research/OpenSci/PSA/2018/2017_submission_orientation_generalicity/Script","no","chinese-japanese-korean","no","18","no","#0000ff","no","Ok","no","Male","768","legacy","yes","no","20","20","1","5","D:/core/Research/OpenSci/PSA/2018/2017_submission_orientation_generalicity/EXPDATA/raw_data/PP/subject-3.csv","6","legacy","Kafkaesque Koffka","3.2.6","yes","5a7ce671e83246000deafe81","0","0","j","NA","NA","j","NA","space","f","NA","space","273","NA","NA","273","NA","828","284","NA","736","2","legacy","1024","2","48000","-16","EXP","3","odd","NA","20268","1280","1282","4151","20259","20258","NA","NA","31090","59854","28928","21015","30251","60355","59853","20270","31090","60355","56671","NA","60630","NA","21016","30216","21029","28927","21029","21029","21016","NA","30253","29430","29430","29716","NA","NA","61130","NA","20271","NA","5623","Orientation_PSA2018","15","9609","27","yes","1024","1997"
"F","100","F","F","PP_LIST3.csv","ring.jpg","stove.jpg","53.5714285714","53.5714285714","352.428571429","352.428571429","#ffffff","yes","legacy","legacy","legacy","0","uniform","0","0","undefined","1","undefined","6","f","0","0","0","0","0","0","0","NA","21","0","21","5","0","0","21","21","0","0","21","21","21","21","NA","0","5","0","5","0","0","0","0","0","5","5","5","5","5","21","0","0","0","0","02/08/19 23:04:12","Matching Tasks","yes","","OrientationCrossLanguages_2018PSA_PP_1.1.0.osexp","D:/core/Research/OpenSci/PSA/2018/2017_submission_orientation_generalicity/Script","no","chinese-japanese-korean","no","18","no","#0000ff","no","Ok","no","Male","768","legacy","yes","no","21","21","1","5","D:/core/Research/OpenSci/PSA/2018/2017_submission_orientation_generalicity/EXPDATA/raw_data/PP/subject-3.csv","6","legacy","Kafkaesque Koffka","3.2.6","yes","5a7ce671e83246000deafe81","0","0","j","NA","NA","j","NA","space","f","NA","space","259","NA","NA","259","NA","828","284","NA","736","2","legacy","1024","2","48000","-16","EXP","3","odd","NA","20268","1280","1282","4151","20259","20258","NA","NA","31090","61227","28928","21015","30251","61728","61225","20270","31090","61728","56671","NA","61989","NA","21016","30216","21029","28927","21029","21029","21016","NA","30253","29430","29430","29716","NA","NA","62489","NA","20271","NA","5623","Orientation_PSA2018","15","9868","28","yes","1024","1997"
"N","100","H","V","PP_LIST3.csv","axeH.jpg","axeV.jpg","55.1724137931","55.1724137931","356.482758621","356.482758621","#ffffff","yes","legacy","legacy","legacy","0","uniform","1","1","undefined","1","undefined","6","j","0","0","0","0","0","0","0","NA","22","0","22","5","0","0","22","22","0","0","22","22","22","22","NA","0","5","0","5","0","0","0","0","0","5","5","5","5","5","22","0","0","0","0","02/08/19 23:04:12","Matching Tasks","yes","","OrientationCrossLanguages_2018PSA_PP_1.1.0.osexp","D:/core/Research/OpenSci/PSA/2018/2017_submission_orientation_generalicity/Script","no","chinese-japanese-korean","no","18","no","#0000ff","no","Ok","no","Male","768","legacy","yes","no","22","22","1","5","D:/core/Research/OpenSci/PSA/2018/2017_submission_orientation_generalicity/EXPDATA/raw_data/PP/subject-3.csv","6","legacy","Kafkaesque Koffka","3.2.6","yes","5a7ce671e83246000deafe81","0","0","j","NA","NA","j","NA","space","f","NA","space","470","NA","NA","470","NA","828","284","NA","736","2","legacy","1024","2","48000","-16","EXP","3","odd","NA","20268","1280","1282","4151","20259","20258","NA","NA","31090","62586","28928","21015","30251","63087","62585","20270","31090","63087","63559","NA","61989","NA","21016","30216","21029","28927","21029","21029","21016","NA","30253","29430","29430","29716","NA","NA","64059","NA","20271","NA","5623","Orientation_PSA2018","16","10338","29","yes","1024","1997"
"Y","100","H","H","PP_LIST3.csv","pencilH.jpg","pencilH.jpg","56.6666666667","56.6666666667","352.033333333","352.033333333","#ffffff","yes","legacy","legacy","legacy","0","uniform","1","1","undefined","1","undefined","6","j","0","0","0","0","0","0","0","NA","23","0","23","5","0","0","23","23","0","0","23","23","23","23","NA","0","5","0","5","0","0","0","0","0","5","5","5","5","5","23","0","0","0","0","02/08/19 23:04:12","Matching Tasks","yes","","OrientationCrossLanguages_2018PSA_PP_1.1.0.osexp","D:/core/Research/OpenSci/PSA/2018/2017_submission_orientation_generalicity/Script","no","chinese-japanese-korean","no","18","no","#0000ff","no","Ok","no","Male","768","legacy","yes","no","23","23","1","5","D:/core/Research/OpenSci/PSA/2018/2017_submission_orientation_generalicity/EXPDATA/raw_data/PP/subject-3.csv","6","legacy","Kafkaesque Koffka","3.2.6","yes","5a7ce671e83246000deafe81","0","0","j","NA","NA","j","NA","space","f","NA","space","223","NA","NA","223","NA","828","284","NA","736","2","legacy","1024","2","48000","-16","EXP","3","odd","NA","20268","1280","1282","4151","20259","20258","NA","NA","31090","64157","28928","21015","30251","64658","64155","20270","31090","64658","64883","NA","61989","NA","21016","30216","21029","28927","21029","21029","21016","NA","30253","29430","29430","29716","NA","NA","65383","NA","20271","NA","5623","Orientation_PSA2018","17","10561","30","yes","1024","1997"
"Y","100","V","V","PP_LIST3.csv","saltV.jpg","saltV.jpg","100","100","429","429","#ffffff","yes","legacy","legacy","legacy","0","uniform","1","1","undefined","1","undefined","6","j","0","0","0","0","0","0","0","0","24","0","24","5","0","0","24","24","0","0","24","24","24","24","NA","0","5","0","5","0","0","0","0","0","5","5","5","5","5","24","0","0","0","0","02/08/19 23:04:12","Matching Tasks","yes","","OrientationCrossLanguages_2018PSA_PP_1.1.0.osexp","D:/core/Research/OpenSci/PSA/2018/2017_submission_orientation_generalicity/Script","no","chinese-japanese-korean","no","18","no","#0000ff","no","Ok","no","Male","768","legacy","yes","no","24","24","1","5","D:/core/Research/OpenSci/PSA/2018/2017_submission_orientation_generalicity/EXPDATA/raw_data/PP/subject-3.csv","6","legacy","Kafkaesque Koffka","3.2.6","yes","5a7ce671e83246000deafe81","0","0","j","space","NA","j","NA","space","f","NA","space","429","899","NA","429","NA","828","284","NA","736","2","legacy","1024","2","48000","-16","EXP","3","odd","NA","20268","1280","1282","4151","20259","20258","65430","NA","31090","66413","28928","21015","30251","66914","66412","20270","31090","66914","67345","NA","61989","NA","21016","30216","21029","28927","21029","21029","21016","NA","30253","29430","29430","29716","NA","NA","67845","NA","20271","NA","5623","Orientation_PSA2018","1","429","1","yes","1024","1997"
"N","100","V","H","PP_LIST3.csv","flashV.jpg","flashH.jpg","100","100","376.5","376.5","#ffffff","yes","legacy","legacy","legacy","0","uniform","1","1","undefined","1","undefined","6","j","0","0","0","0","0","0","0","0","25","0","25","5","0","0","25","25","0","0","25","25","25","25","NA","0","5","0","5","0","0","0","0","0","5","5","5","5","5","25","0","0","0","0","02/08/19 23:04:12","Matching Tasks","yes","","OrientationCrossLanguages_2018PSA_PP_1.1.0.osexp","D:/core/Research/OpenSci/PSA/2018/2017_submission_orientation_generalicity/Script","no","chinese-japanese-korean","no","18","no","#0000ff","no","Ok","no","Male","768","legacy","yes","no","25","25","1","5","D:/core/Research/OpenSci/PSA/2018/2017_submission_orientation_generalicity/EXPDATA/raw_data/PP/subject-3.csv","6","legacy","Kafkaesque Koffka","3.2.6","yes","5a7ce671e83246000deafe81","0","0","j","space","NA","j","NA","space","f","NA","space","324","899","NA","324","NA","828","284","NA","736","2","legacy","1024","2","48000","-16","EXP","3","odd","NA","20268","1280","1282","4151","20259","20258","65430","NA","31090","67948","28928","21015","30251","68449","67946","20270","31090","68449","68775","NA","61989","NA","21016","30216","21029","28927","21029","21029","21016","NA","30253","29430","29430","29716","NA","NA","69275","NA","20271","NA","5623","Orientation_PSA2018","2","753","2","yes","1024","1997"
"F","100","F","F","PP_LIST3.csv","tapedispenser.jpg","wrench.jpg","66.6666666667","66.6666666667","333.333333333","333.333333333","#ffffff","yes","legacy","legacy","legacy","0","uniform","0","0","undefined","1","undefined","6","f","0","0","0","0","0","0","0","0","26","0","26","5","0","0","26","26","0","0","26","26","26","26","NA","0","5","0","5","0","0","0","0","0","5","5","5","5","5","26","0","0","0","0","02/08/19 23:04:12","Matching Tasks","yes","","OrientationCrossLanguages_2018PSA_PP_1.1.0.osexp","D:/core/Research/OpenSci/PSA/2018/2017_submission_orientation_generalicity/Script","no","chinese-japanese-korean","no","18","no","#0000ff","no","Ok","no","Male","768","legacy","yes","no","26","26","1","5","D:/core/Research/OpenSci/PSA/2018/2017_submission_orientation_generalicity/EXPDATA/raw_data/PP/subject-3.csv","6","legacy","Kafkaesque Koffka","3.2.6","yes","5a7ce671e83246000deafe81","0","0","j","space","NA","j","NA","space","f","NA","space","247","899","NA","247","NA","828","284","NA","736","2","legacy","1024","2","48000","-16","EXP","3","odd","NA","20268","1280","1282","4151","20259","20258","65430","NA","31090","69371","28928","21015","30251","69873","69370","20270","31090","69873","68775","NA","70122","NA","21016","30216","21029","28927","21029","21029","21016","NA","30253","29430","29430","29716","NA","NA","70622","NA","20271","NA","5623","Orientation_PSA2018","2","1000","3","yes","1024","1997"
"F","100","F","F","PP_LIST3.csv","wndmil.jpg","mitten.jpg","50","50","329.25","329.25","#ffffff","yes","legacy","legacy","legacy","0","uniform","0","0","undefined","1","undefined","6","f","0","0","0","0","0","0","0","0","27","0","27","5","0","0","27","27","0","0","27","27","27","27","NA","0","5","0","5","0","0","0","0","0","5","5","5","5","5","27","0","0","0","0","02/08/19 23:04:12","Matching Tasks","yes","","OrientationCrossLanguages_2018PSA_PP_1.1.0.osexp","D:/core/Research/OpenSci/PSA/2018/2017_submission_orientation_generalicity/Script","no","chinese-japanese-korean","no","18","no","#0000ff","no","Ok","no","Male","768","legacy","yes","no","27","27","1","5","D:/core/Research/OpenSci/PSA/2018/2017_submission_orientation_generalicity/EXPDATA/raw_data/PP/subject-3.csv","6","legacy","Kafkaesque Koffka","3.2.6","yes","5a7ce671e83246000deafe81","0","0","j","space","NA","j","NA","space","f","NA","space","317","899","NA","317","NA","828","284","NA","736","2","legacy","1024","2","48000","-16","EXP","3","odd","NA","20268","1280","1282","4151","20259","20258","65430","NA","31090","70719","28928","21015","30251","71220","70718","20270","31090","71220","68775","NA","71539","NA","21016","30216","21029","28927","21029","21029","21016","NA","30253","29430","29430","29716","NA","NA","72039","NA","20271","NA","5623","Orientation_PSA2018","2","1317","4","yes","1024","1997"
"Y","100","H","H","PP_LIST3.csv","keyH.jpg","keyH.jpg","60","60","328","328","#ffffff","yes","legacy","legacy","legacy","0","uniform","1","1","undefined","1","undefined","6","j","0","0","0","0","0","0","0","0","28","0","28","5","0","0","28","28","0","0","28","28","28","28","NA","0","5","0","5","0","0","0","0","0","5","5","5","5","5","28","0","0","0","0","02/08/19 23:04:12","Matching Tasks","yes","","OrientationCrossLanguages_2018PSA_PP_1.1.0.osexp","D:/core/Research/OpenSci/PSA/2018/2017_submission_orientation_generalicity/Script","no","chinese-japanese-korean","no","18","no","#0000ff","no","Ok","no","Male","768","legacy","yes","no","28","28","1","5","D:/core/Research/OpenSci/PSA/2018/2017_submission_orientation_generalicity/EXPDATA/raw_data/PP/subject-3.csv","6","legacy","Kafkaesque Koffka","3.2.6","yes","5a7ce671e83246000deafe81","0","0","j","space","NA","j","NA","space","f","NA","space","323","899","NA","323","NA","828","284","NA","736","2","legacy","1024","2","48000","-16","EXP","3","odd","NA","20268","1280","1282","4151","20259","20258","65430","NA","31090","72137","28928","21015","30251","72638","72136","20270","31090","72638","72963","NA","71539","NA","21016","30216","21029","28927","21029","21029","21016","NA","30253","29430","29430","29716","NA","NA","73463","NA","20271","NA","5623","Orientation_PSA2018","3","1640","5","yes","1024","1997"
"N","100","V","H","PP_LIST3.csv","fire_extinguisherV.jpg","fire_extinguisherH.jpg","66.6666666667","66.6666666667","349.166666667","349.166666667","#ffffff","yes","legacy","legacy","legacy","0","uniform","1","1","undefined","1","undefined","6","j","0","0","0","0","0","0","0","0","29","0","29","5","0","0","29","29","0","0","29","29","29","29","NA","0","5","0","5","0","0","0","0","0","5","5","5","5","5","29","0","0","0","0","02/08/19 23:04:12","Matching Tasks","yes","","OrientationCrossLanguages_2018PSA_PP_1.1.0.osexp","D:/core/Research/OpenSci/PSA/2018/2017_submission_orientation_generalicity/Script","no","chinese-japanese-korean","no","18","no","#0000ff","no","Ok","no","Male","768","legacy","yes","no","29","29","1","5","D:/core/Research/OpenSci/PSA/2018/2017_submission_orientation_generalicity/EXPDATA/raw_data/PP/subject-3.csv","6","legacy","Kafkaesque Koffka","3.2.6","yes","5a7ce671e83246000deafe81","0","0","j","space","NA","j","NA","space","f","NA","space","455","899","NA","455","NA","828","284","NA","736","2","legacy","1024","2","48000","-16","EXP","3","odd","NA","20268","1280","1282","4151","20259","20258","65430","NA","31090","73568","28928","21015","30251","74069","73567","20270","31090","74069","74526","NA","71539","NA","21016","30216","21029","28927","21029","21029","21016","NA","30253","29430","29430","29716","NA","NA","75026","NA","20271","NA","5623","Orientation_PSA2018","4","2095","6","yes","1024","1997"
"Y","100","V","V","PP_LIST3.csv","scssorV.jpg","scssorV.jpg","71.4285714286","71.4285714286","315.285714286","315.285714286","#ffffff","yes","legacy","legacy","legacy","0","uniform","1","1","undefined","1","undefined","6","j","0","0","0","0","0","0","0","0","30","0","30","5","0","0","30","30","0","0","30","30","30","30","NA","0","5","0","5","0","0","0","0","0","5","5","5","5","5","30","0","0","0","0","02/08/19 23:04:12","Matching Tasks","yes","","OrientationCrossLanguages_2018PSA_PP_1.1.0.osexp","D:/core/Research/OpenSci/PSA/2018/2017_submission_orientation_generalicity/Script","no","chinese-japanese-korean","no","18","no","#0000ff","no","Ok","no","Male","768","legacy","yes","no","30","30","1","5","D:/core/Research/OpenSci/PSA/2018/2017_submission_orientation_generalicity/EXPDATA/raw_data/PP/subject-3.csv","6","legacy","Kafkaesque Koffka","3.2.6","yes","5a7ce671e83246000deafe81","0","0","j","space","NA","j","NA","space","f","NA","space","112","899","NA","112","NA","828","284","NA","736","2","legacy","1024","2","48000","-16","EXP","3","odd","NA","20268","1280","1282","4151","20259","20258","65430","NA","31090","75155","28928","21015","30251","75657","75154","20270","31090","75657","75771","NA","71539","NA","21016","30216","21029","28927","21029","21029","21016","NA","30253","29430","29430","29716","NA","NA","76271","NA","20271","NA","5623","Orientation_PSA2018","5","2207","7","yes","1024","1997"
"Y","100","V","V","PP_LIST3.csv","penV.jpg","penV.jpg","75","75","328","328","#ffffff","yes","legacy","legacy","legacy","0","uniform","1","1","undefined","1","undefined","6","j","0","0","0","0","0","0","0","0","31","0","31","5","0","0","31","31","0","0","31","31","31","31","NA","0","5","0","5","0","0","0","0","0","5","5","5","5","5","31","0","0","0","0","02/08/19 23:04:12","Matching Tasks","yes","","OrientationCrossLanguages_2018PSA_PP_1.1.0.osexp","D:/core/Research/OpenSci/PSA/2018/2017_submission_orientation_generalicity/Script","no","chinese-japanese-korean","no","18","no","#0000ff","no","Ok","no","Male","768","legacy","yes","no","31","31","1","5","D:/core/Research/OpenSci/PSA/2018/2017_submission_orientation_generalicity/EXPDATA/raw_data/PP/subject-3.csv","6","legacy","Kafkaesque Koffka","3.2.6","yes","5a7ce671e83246000deafe81","0","0","j","space","NA","j","NA","space","f","NA","space","417","899","NA","417","NA","828","284","NA","736","2","legacy","1024","2","48000","-16","EXP","3","odd","NA","20268","1280","1282","4151","20259","20258","65430","NA","31090","76369","28928","21015","30251","76870","76367","20270","31090","76870","77288","NA","71539","NA","21016","30216","21029","28927","21029","21029","21016","NA","30253","29430","29430","29716","NA","NA","77788","NA","20271","NA","5623","Orientation_PSA2018","6","2624","8","yes","1024","1997"
"F","100","F","F","PP_LIST3.csv","ladder.jpg","house.jpg","66.6666666667","66.6666666667","361.333333333","361.333333333","#ffffff","yes","legacy","legacy","legacy","0","uniform","0","0","undefined","1","undefined","6","f","0","0","0","0","0","0","0","0","32","0","32","5","0","0","32","32","0","0","32","32","32","32","NA","0","5","0","5","0","0","0","0","0","5","5","5","5","5","32","0","0","0","0","02/08/19 23:04:12","Matching Tasks","yes","","OrientationCrossLanguages_2018PSA_PP_1.1.0.osexp","D:/core/Research/OpenSci/PSA/2018/2017_submission_orientation_generalicity/Script","no","chinese-japanese-korean","no","18","no","#0000ff","no","Ok","no","Male","768","legacy","yes","no","32","32","1","5","D:/core/Research/OpenSci/PSA/2018/2017_submission_orientation_generalicity/EXPDATA/raw_data/PP/subject-3.csv","6","legacy","Kafkaesque Koffka","3.2.6","yes","5a7ce671e83246000deafe81","0","0","j","space","NA","j","NA","space","f","NA","space","628","899","NA","628","NA","828","284","NA","736","2","legacy","1024","2","48000","-16","EXP","3","odd","NA","20268","1280","1282","4151","20259","20258","65430","NA","31090","77885","28928","21015","30251","78386","77884","20270","31090","78386","77288","NA","79016","NA","21016","30216","21029","28927","21029","21029","21016","NA","30253","29430","29430","29716","NA","NA","79516","NA","20271","NA","5623","Orientation_PSA2018","6","3252","9","yes","1024","1997"
"F","100","F","F","PP_LIST3.csv","buggy.jpg","glass.jpg","60","60","376.1","376.1","#ffffff","yes","legacy","legacy","legacy","0","uniform","0","0","undefined","1","undefined","6","f","0","0","0","0","0","0","0","0","33","0","33","5","0","0","33","33","0","0","33","33","33","33","NA","0","5","0","5","0","0","0","0","0","5","5","5","5","5","33","0","0","0","0","02/08/19 23:04:12","Matching Tasks","yes","","OrientationCrossLanguages_2018PSA_PP_1.1.0.osexp","D:/core/Research/OpenSci/PSA/2018/2017_submission_orientation_generalicity/Script","no","chinese-japanese-korean","no","18","no","#0000ff","no","Ok","no","Male","768","legacy","yes","no","33","33","1","5","D:/core/Research/OpenSci/PSA/2018/2017_submission_orientation_generalicity/EXPDATA/raw_data/PP/subject-3.csv","6","legacy","Kafkaesque Koffka","3.2.6","yes","5a7ce671e83246000deafe81","0","0","j","space","NA","j","NA","space","f","NA","space","509","899","NA","509","NA","828","284","NA","736","2","legacy","1024","2","48000","-16","EXP","3","odd","NA","20268","1280","1282","4151","20259","20258","65430","NA","31090","79613","28928","21015","30251","80114","79611","20270","31090","80114","77288","NA","80624","NA","21016","30216","21029","28927","21029","21029","21016","NA","30253","29430","29430","29716","NA","NA","81124","NA","20271","NA","5623","Orientation_PSA2018","6","3761","10","yes","1024","1997"
"F","100","F","F","PP_LIST3.csv","needle.jpg","tiger.jpg","54.5454545455","54.5454545455","409.181818182","409.181818182","#ffffff","yes","legacy","legacy","legacy","0","uniform","0","0","undefined","1","undefined","6","f","0","0","0","0","0","0","0","0","34","0","34","5","0","0","34","34","0","0","34","34","34","34","NA","0","5","0","5","0","0","0","0","0","5","5","5","5","5","34","0","0","0","0","02/08/19 23:04:12","Matching Tasks","yes","","OrientationCrossLanguages_2018PSA_PP_1.1.0.osexp","D:/core/Research/OpenSci/PSA/2018/2017_submission_orientation_generalicity/Script","no","chinese-japanese-korean","no","18","no","#0000ff","no","Ok","no","Male","768","legacy","yes","no","34","34","1","5","D:/core/Research/OpenSci/PSA/2018/2017_submission_orientation_generalicity/EXPDATA/raw_data/PP/subject-3.csv","6","legacy","Kafkaesque Koffka","3.2.6","yes","5a7ce671e83246000deafe81","0","0","j","space","NA","j","NA","space","f","NA","space","740","899","NA","740","NA","828","284","NA","736","2","legacy","1024","2","48000","-16","EXP","3","odd","NA","20268","1280","1282","4151","20259","20258","65430","NA","31090","81220","28928","21015","30251","81721","81219","20270","31090","81721","77288","NA","82463","NA","21016","30216","21029","28927","21029","21029","21016","NA","30253","29430","29430","29716","NA","NA","82963","NA","20271","NA","5623","Orientation_PSA2018","6","4501","11","yes","1024","1997"
"N","100","H","V","PP_LIST3.csv","broomH.jpg","broomV.jpg","58.3333333333","58.3333333333","442.583333333","442.583333333","#ffffff","yes","legacy","legacy","legacy","0","uniform","1","1","undefined","1","undefined","6","j","0","0","0","0","0","0","0","0","35","0","35","5","0","0","35","35","0","0","35","35","35","35","NA","0","5","0","5","0","0","0","0","0","5","5","5","5","5","35","0","0","0","0","02/08/19 23:04:12","Matching Tasks","yes","","OrientationCrossLanguages_2018PSA_PP_1.1.0.osexp","D:/core/Research/OpenSci/PSA/2018/2017_submission_orientation_generalicity/Script","no","chinese-japanese-korean","no","18","no","#0000ff","no","Ok","no","Male","768","legacy","yes","no","35","35","1","5","D:/core/Research/OpenSci/PSA/2018/2017_submission_orientation_generalicity/EXPDATA/raw_data/PP/subject-3.csv","6","legacy","Kafkaesque Koffka","3.2.6","yes","5a7ce671e83246000deafe81","0","0","j","space","NA","j","NA","space","f","NA","space","810","899","NA","810","NA","828","284","NA","736","2","legacy","1024","2","48000","-16","EXP","3","odd","NA","20268","1280","1282","4151","20259","20258","65430","NA","31090","83065","28928","21015","30251","83569","83064","20270","31090","83570","84381","NA","82463","NA","21016","30216","21029","28927","21029","21029","21016","NA","30253","29430","29430","29716","NA","NA","84881","NA","20271","NA","5623","Orientation_PSA2018","7","5311","12","yes","1024","1997"
"N","100","V","H","PP_LIST3.csv","brushV.jpg","brushH.jpg","61.5384615385","61.5384615385","449","449","#ffffff","yes","legacy","legacy","legacy","0","uniform","1","1","undefined","1","undefined","6","j","0","0","0","0","0","0","0","0","36","0","36","5","0","0","36","36","0","0","36","36","36","36","NA","0","5","0","5","0","0","0","0","0","5","5","5","5","5","36","0","0","0","0","02/08/19 23:04:12","Matching Tasks","yes","","OrientationCrossLanguages_2018PSA_PP_1.1.0.osexp","D:/core/Research/OpenSci/PSA/2018/2017_submission_orientation_generalicity/Script","no","chinese-japanese-korean","no","18","no","#0000ff","no","Ok","no","Male","768","legacy","yes","no","36","36","1","5","D:/core/Research/OpenSci/PSA/2018/2017_submission_orientation_generalicity/EXPDATA/raw_data/PP/subject-3.csv","6","legacy","Kafkaesque Koffka","3.2.6","yes","5a7ce671e83246000deafe81","0","0","j","space","NA","j","NA","space","f","NA","space","526","899","NA","526","NA","828","284","NA","736","2","legacy","1024","2","48000","-16","EXP","3","odd","NA","20268","1280","1282","4151","20259","20258","65430","NA","31090","84979","28928","21015","30251","85480","84978","20270","31090","85480","86008","NA","82463","NA","21016","30216","21029","28927","21029","21029","21016","NA","30253","29430","29430","29716","NA","NA","86508","NA","20271","NA","5623","Orientation_PSA2018","8","5837","13","yes","1024","1997"
"F","100","F","F","PP_LIST3.csv","knife.jpg","ladder.jpg","57.1428571429","57.1428571429","440.357142857","440.357142857","#ffffff","yes","legacy","legacy","legacy","0","uniform","0","0","undefined","1","undefined","6","f","0","0","0","0","0","0","0","0","37","0","37","5","0","0","37","37","0","0","37","37","37","37","NA","0","5","0","5","0","0","0","0","0","5","5","5","5","5","37","0","0","0","0","02/08/19 23:04:12","Matching Tasks","yes","","OrientationCrossLanguages_2018PSA_PP_1.1.0.osexp","D:/core/Research/OpenSci/PSA/2018/2017_submission_orientation_generalicity/Script","no","chinese-japanese-korean","no","18","no","#0000ff","no","Ok","no","Male","768","legacy","yes","no","37","37","1","5","D:/core/Research/OpenSci/PSA/2018/2017_submission_orientation_generalicity/EXPDATA/raw_data/PP/subject-3.csv","6","legacy","Kafkaesque Koffka","3.2.6","yes","5a7ce671e83246000deafe81","0","0","j","space","NA","j","NA","space","f","NA","space","328","899","NA","328","NA","828","284","NA","736","2","legacy","1024","2","48000","-16","EXP","3","odd","NA","20268","1280","1282","4151","20259","20258","65430","NA","31090","86624","28928","21015","30251","87125","86623","20270","31090","87125","86008","NA","87455","NA","21016","30216","21029","28927","21029","21029","21016","NA","30253","29430","29430","29716","NA","NA","87955","NA","20271","NA","5623","Orientation_PSA2018","8","6165","14","yes","1024","1997"
"F","100","F","F","PP_LIST3.csv","ftball.jpg","nut.jpg","53.3333333333","53.3333333333","445.066666667","445.066666667","#ffffff","yes","legacy","legacy","legacy","0","uniform","0","0","undefined","1","undefined","6","f","0","0","0","0","0","0","0","0","38","0","38","5","0","0","38","38","0","0","38","38","38","38","NA","0","5","0","5","0","0","0","0","0","5","5","5","5","5","38","0","0","0","0","02/08/19 23:04:12","Matching Tasks","yes","","OrientationCrossLanguages_2018PSA_PP_1.1.0.osexp","D:/core/Research/OpenSci/PSA/2018/2017_submission_orientation_generalicity/Script","no","chinese-japanese-korean","no","18","no","#0000ff","no","Ok","no","Male","768","legacy","yes","no","38","38","1","5","D:/core/Research/OpenSci/PSA/2018/2017_submission_orientation_generalicity/EXPDATA/raw_data/PP/subject-3.csv","6","legacy","Kafkaesque Koffka","3.2.6","yes","5a7ce671e83246000deafe81","0","0","j","space","NA","j","NA","space","f","NA","space","511","899","NA","511","NA","828","284","NA","736","2","legacy","1024","2","48000","-16","EXP","3","odd","NA","20268","1280","1282","4151","20259","20258","65430","NA","31090","88051","28928","21015","30251","88552","88049","20270","31090","88552","86008","NA","89065","NA","21016","30216","21029","28927","21029","21029","21016","NA","30253","29430","29430","29716","NA","NA","89565","NA","20271","NA","5623","Orientation_PSA2018","8","6676","15","yes","1024","1997"
"Y","100","V","V","PP_LIST3.csv","plateV.jpg","plateV.jpg","56.25","56.25","455.125","455.125","#ffffff","yes","legacy","legacy","legacy","0","uniform","1","1","undefined","1","undefined","6","j","0","0","0","0","0","0","0","0","39","0","39","5","0","0","39","39","0","0","39","39","39","39","NA","0","5","0","5","0","0","0","0","0","5","5","5","5","5","39","0","0","0","0","02/08/19 23:04:12","Matching Tasks","yes","","OrientationCrossLanguages_2018PSA_PP_1.1.0.osexp","D:/core/Research/OpenSci/PSA/2018/2017_submission_orientation_generalicity/Script","no","chinese-japanese-korean","no","18","no","#0000ff","no","Ok","no","Male","768","legacy","yes","no","39","39","1","5","D:/core/Research/OpenSci/PSA/2018/2017_submission_orientation_generalicity/EXPDATA/raw_data/PP/subject-3.csv","6","legacy","Kafkaesque Koffka","3.2.6","yes","5a7ce671e83246000deafe81","0","0","j","space","NA","j","NA","space","f","NA","space","606","899","NA","606","NA","828","284","NA","736","2","legacy","1024","2","48000","-16","EXP","3","odd","NA","20268","1280","1282","4151","20259","20258","65430","NA","31090","89690","28928","21015","30251","90191","89688","20270","31090","90191","90799","NA","89065","NA","21016","30216","21029","28927","21029","21029","21016","NA","30253","29430","29430","29716","NA","NA","91299","NA","20271","NA","5623","Orientation_PSA2018","9","7282","16","yes","1024","1997"
"Y","100","V","V","PP_LIST3.csv","tireV.jpg","tireV.jpg","58.8235294118","58.8235294118","447.941176471","447.941176471","#ffffff","yes","legacy","legacy","legacy","0","uniform","1","1","undefined","1","undefined","6","j","0","0","0","0","0","0","0","0","40","0","40","5","0","0","40","40","0","0","40","40","40","40","NA","0","5","0","5","0","0","0","0","0","5","5","5","5","5","40","0","0","0","0","02/08/19 23:04:12","Matching Tasks","yes","","OrientationCrossLanguages_2018PSA_PP_1.1.0.osexp","D:/core/Research/OpenSci/PSA/2018/2017_submission_orientation_generalicity/Script","no","chinese-japanese-korean","no","18","no","#0000ff","no","Ok","no","Male","768","legacy","yes","no","40","40","1","5","D:/core/Research/OpenSci/PSA/2018/2017_submission_orientation_generalicity/EXPDATA/raw_data/PP/subject-3.csv","6","legacy","Kafkaesque Koffka","3.2.6","yes","5a7ce671e83246000deafe81","0","0","j","space","NA","j","NA","space","f","NA","space","333","899","NA","333","NA","828","284","NA","736","2","legacy","1024","2","48000","-16","EXP","3","odd","NA","20268","1280","1282","4151","20259","20258","65430","NA","31090","91404","28928","21015","30251","91906","91403","20270","31090","91906","92241","NA","89065","NA","21016","30216","21029","28927","21029","21029","21016","NA","30253","29430","29430","29716","NA","NA","92741","NA","20271","NA","5623","Orientation_PSA2018","10","7615","17","yes","1024","1997"
"Y","100","V","V","PP_LIST3.csv","screwV.jpg","screwV.jpg","61.1111111111","61.1111111111","452.833333333","452.833333333","#ffffff","yes","legacy","legacy","legacy","0","uniform","1","1","undefined","1","undefined","6","j","0","0","0","0","0","0","0","0","41","0","41","5","0","0","41","41","0","0","41","41","41","41","NA","0","5","0","5","0","0","0","0","0","5","5","5","5","5","41","0","0","0","0","02/08/19 23:04:12","Matching Tasks","yes","","OrientationCrossLanguages_2018PSA_PP_1.1.0.osexp","D:/core/Research/OpenSci/PSA/2018/2017_submission_orientation_generalicity/Script","no","chinese-japanese-korean","no","18","no","#0000ff","no","Ok","no","Male","768","legacy","yes","no","41","41","1","5","D:/core/Research/OpenSci/PSA/2018/2017_submission_orientation_generalicity/EXPDATA/raw_data/PP/subject-3.csv","6","legacy","Kafkaesque Koffka","3.2.6","yes","5a7ce671e83246000deafe81","0","0","j","space","NA","j","NA","space","f","NA","space","536","899","NA","536","NA","828","284","NA","736","2","legacy","1024","2","48000","-16","EXP","3","odd","NA","20268","1280","1282","4151","20259","20258","65430","NA","31090","92840","28928","21015","30251","93342","92839","20270","31090","93342","93881","NA","89065","NA","21016","30216","21029","28927","21029","21029","21016","NA","30253","29430","29430","29716","NA","NA","94381","NA","20271","NA","5623","Orientation_PSA2018","11","8151","18","yes","1024","1997"
"Y","100","H","H","PP_LIST3.csv","nailH.jpg","nailH.jpg","63.1578947368","63.1578947368","456.631578947","456.631578947","#ffffff","yes","legacy","legacy","legacy","0","uniform","1","1","undefined","1","undefined","6","j","0","0","0","0","0","0","0","0","42","0","42","5","0","0","42","42","0","0","42","42","42","42","NA","0","5","0","5","0","0","0","0","0","5","5","5","5","5","42","0","0","0","0","02/08/19 23:04:12","Matching Tasks","yes","","OrientationCrossLanguages_2018PSA_PP_1.1.0.osexp","D:/core/Research/OpenSci/PSA/2018/2017_submission_orientation_generalicity/Script","no","chinese-japanese-korean","no","18","no","#0000ff","no","Ok","no","Male","768","legacy","yes","no","42","42","1","5","D:/core/Research/OpenSci/PSA/2018/2017_submission_orientation_generalicity/EXPDATA/raw_data/PP/subject-3.csv","6","legacy","Kafkaesque Koffka","3.2.6","yes","5a7ce671e83246000deafe81","0","0","j","space","NA","j","NA","space","f","NA","space","525","899","NA","525","NA","828","284","NA","736","2","legacy","1024","2","48000","-16","EXP","3","odd","NA","20268","1280","1282","4151","20259","20258","65430","NA","31090","94479","28928","21015","30251","94980","94477","20270","31090","94980","95507","NA","89065","NA","21016","30216","21029","28927","21029","21029","21016","NA","30253","29430","29430","29716","NA","NA","96007","NA","20271","NA","5623","Orientation_PSA2018","12","8676","19","yes","1024","1997"
"F","100","F","F","PP_LIST3.csv","tlphon.jpg","knife.jpg","60","60","470.2","470.2","#ffffff","yes","legacy","legacy","legacy","0","uniform","0","0","undefined","1","undefined","6","f","0","0","0","0","0","0","0","0","43","0","43","5","0","0","43","43","0","0","43","43","43","43","NA","0","5","0","5","0","0","0","0","0","5","5","5","5","5","43","0","0","0","0","02/08/19 23:04:12","Matching Tasks","yes","","OrientationCrossLanguages_2018PSA_PP_1.1.0.osexp","D:/core/Research/OpenSci/PSA/2018/2017_submission_orientation_generalicity/Script","no","chinese-japanese-korean","no","18","no","#0000ff","no","Ok","no","Male","768","legacy","yes","no","43","43","1","5","D:/core/Research/OpenSci/PSA/2018/2017_submission_orientation_generalicity/EXPDATA/raw_data/PP/subject-3.csv","6","legacy","Kafkaesque Koffka","3.2.6","yes","5a7ce671e83246000deafe81","0","0","j","space","NA","j","NA","space","f","NA","space","728","899","NA","728","NA","828","284","NA","736","2","legacy","1024","2","48000","-16","EXP","3","odd","NA","20268","1280","1282","4151","20259","20258","65430","NA","31090","96095","28928","21015","30251","96596","96093","20270","31090","96596","95507","NA","97326","NA","21016","30216","21029","28927","21029","21029","21016","NA","30253","29430","29430","29716","NA","NA","97826","NA","20271","NA","5623","Orientation_PSA2018","12","9404","20","yes","1024","1997"
"F","100","F","F","PP_LIST3.csv","pumpkin.jpg","trmpet.jpg","57.1428571429","57.1428571429","466.666666667","466.666666667","#ffffff","yes","legacy","legacy","legacy","0","uniform","0","0","undefined","1","undefined","6","f","0","0","0","0","0","0","0","0","44","0","44","5","0","0","44","44","0","0","44","44","44","44","NA","0","5","0","5","0","0","0","0","0","5","5","5","5","5","44","0","0","0","0","02/08/19 23:04:12","Matching Tasks","yes","","OrientationCrossLanguages_2018PSA_PP_1.1.0.osexp","D:/core/Research/OpenSci/PSA/2018/2017_submission_orientation_generalicity/Script","no","chinese-japanese-korean","no","18","no","#0000ff","no","Ok","no","Male","768","legacy","yes","no","44","44","1","5","D:/core/Research/OpenSci/PSA/2018/2017_submission_orientation_generalicity/EXPDATA/raw_data/PP/subject-3.csv","6","legacy","Kafkaesque Koffka","3.2.6","yes","5a7ce671e83246000deafe81","0","0","j","space","NA","j","NA","space","f","NA","space","396","899","NA","396","NA","828","284","NA","736","2","legacy","1024","2","48000","-16","EXP","3","odd","NA","20268","1280","1282","4151","20259","20258","65430","NA","31090","97944","28928","21015","30251","98445","97943","20270","31090","98445","95507","NA","98843","NA","21016","30216","21029","28927","21029","21029","21016","NA","30253","29430","29430","29716","NA","NA","99343","NA","20271","NA","5623","Orientation_PSA2018","12","9800","21","yes","1024","1997"
"N","100","H","V","PP_LIST3.csv","bookH.jpg","bookV.jpg","59.0909090909","59.0909090909","462.409090909","462.409090909","#ffffff","yes","legacy","legacy","legacy","0","uniform","1","1","undefined","1","undefined","6","j","0","0","0","0","0","0","0","0","45","0","45","5","0","0","45","45","0","0","45","45","45","45","NA","0","5","0","5","0","0","0","0","0","5","5","5","5","5","45","0","0","0","0","02/08/19 23:04:12","Matching Tasks","yes","","OrientationCrossLanguages_2018PSA_PP_1.1.0.osexp","D:/core/Research/OpenSci/PSA/2018/2017_submission_orientation_generalicity/Script","no","chinese-japanese-korean","no","18","no","#0000ff","no","Ok","no","Male","768","legacy","yes","no","45","45","1","5","D:/core/Research/OpenSci/PSA/2018/2017_submission_orientation_generalicity/EXPDATA/raw_data/PP/subject-3.csv","6","legacy","Kafkaesque Koffka","3.2.6","yes","5a7ce671e83246000deafe81","0","0","j","space","NA","j","NA","space","f","NA","space","373","899","NA","373","NA","828","284","NA","736","2","legacy","1024","2","48000","-16","EXP","3","odd","NA","20268","1280","1282","4151","20259","20258","65430","NA","31090","99441","28928","21015","30251","99942","99439","20270","31090","99942","100317","NA","98843","NA","21016","30216","21029","28927","21029","21029","21016","NA","30253","29430","29430","29716","NA","NA","100817","NA","20271","NA","5623","Orientation_PSA2018","13","10173","22","yes","1024","1997"
"N","100","H","V","PP_LIST3.csv","batH.jpg","batV.jpg","60.8695652174","60.8695652174","472.739130435","472.739130435","#ffffff","yes","legacy","legacy","legacy","0","uniform","1","1","undefined","1","undefined","6","j","0","0","0","0","0","0","0","0","46","0","46","5","0","0","46","46","0","0","46","46","46","46","NA","0","5","0","5","0","0","0","0","0","5","5","5","5","5","46","0","0","0","0","02/08/19 23:04:12","Matching Tasks","yes","","OrientationCrossLanguages_2018PSA_PP_1.1.0.osexp","D:/core/Research/OpenSci/PSA/2018/2017_submission_orientation_generalicity/Script","no","chinese-japanese-korean","no","18","no","#0000ff","no","Ok","no","Male","768","legacy","yes","no","46","46","1","5","D:/core/Research/OpenSci/PSA/2018/2017_submission_orientation_generalicity/EXPDATA/raw_data/PP/subject-3.csv","6","legacy","Kafkaesque Koffka","3.2.6","yes","5a7ce671e83246000deafe81","0","0","j","space","NA","j","NA","space","f","NA","space","700","899","NA","700","NA","828","284","NA","736","2","legacy","1024","2","48000","-16","EXP","3","odd","NA","20268","1280","1282","4151","20259","20258","65430","NA","31090","100920","28928","21015","30251","101421","100918","20270","31090","101421","102123","NA","98843","NA","21016","30216","21029","28927","21029","21029","21016","NA","30253","29430","29430","29716","NA","NA","102623","NA","20271","NA","5623","Orientation_PSA2018","14","10873","23","yes","1024","1997"
"F","100","F","F","PP_LIST3.csv","sutcse.jpg","pumpkin.jpg","58.3333333333","58.3333333333","478.75","478.75","#ffffff","yes","legacy","legacy","legacy","0","uniform","0","0","undefined","1","undefined","6","f","0","0","0","0","0","0","0","0","47","0","47","5","0","0","47","47","0","0","47","47","47","47","NA","0","5","0","5","0","0","0","0","0","5","5","5","5","5","47","0","0","0","0","02/08/19 23:04:12","Matching Tasks","yes","","OrientationCrossLanguages_2018PSA_PP_1.1.0.osexp","D:/core/Research/OpenSci/PSA/2018/2017_submission_orientation_generalicity/Script","no","chinese-japanese-korean","no","18","no","#0000ff","no","Ok","no","Male","768","legacy","yes","no","47","47","1","5","D:/core/Research/OpenSci/PSA/2018/2017_submission_orientation_generalicity/EXPDATA/raw_data/PP/subject-3.csv","6","legacy","Kafkaesque Koffka","3.2.6","yes","5a7ce671e83246000deafe81","0","0","j","space","NA","j","NA","space","f","NA","space","617","899","NA","617","NA","828","284","NA","736","2","legacy","1024","2","48000","-16","EXP","3","odd","NA","20268","1280","1282","4151","20259","20258","65430","NA","31090","102724","28928","21015","30251","103225","102723","20270","31090","103225","102123","NA","103844","NA","21016","30216","21029","28927","21029","21029","21016","NA","30253","29430","29430","29716","NA","NA","104344","NA","20271","NA","5623","Orientation_PSA2018","14","11490","24","yes","1024","1997"
