"Identical","LAB_SEED","Orientation1","Orientation2","PPList","Picture1","Picture2","acc","accuracy","average_response_time","avg_rt","background","bidi","canvas_backend","clock_backend","color_backend","compensation","coordinates","correct","correct_Pictures_response","correct_Start_E","correct_Target_response_Prac","correct_Welcome_PP_E","correct_count","correct_response","count_Check_This","count_Disable_Mouse","count_EXP","count_LAB_SEED","count_Language_Selection","count_List_Select","count_List_Selection","count_Pictures_Break","count_Pictures_End","count_Pictures_Exp","count_Pictures_Fixation","count_Pictures_Fixation_Prac","count_Pictures_Prac","count_Pictures_Start","count_Pictures_Target","count_Pictures_Trial","count_Pictures_Welcome","count_Pictures_loop","count_Pictures_response","count_Pictures_response_correct","count_Pictures_response_noans","count_Pictures_response_wrong","count_Post","count_Prac","count_Prac_Count_1","count_Prac_Reset","count_Prac_Trial","count_Prac_loop","count_Prac_seq","count_Prac_setup","count_Start_C","count_Start_E","count_Target_Prac","count_Target_response_Prac","count_Target_response_correct_Prac","count_Target_response_noans_Prac_1","count_Target_response_wrong_Prac_1","count_Trial_logger","count_Welcome_PP_C","count_Welcome_PP_E","count_postdata_C","count_postdata_E","datetime","description","disable_garbage_collection","empty_column","experiment_file","experiment_path","font_bold","font_family","font_italic","font_size","font_underline","foreground","form_clicks","form_response","fullscreen","gender","height","keyboard_backend","language1","language2","live_row","live_row_Pictures_loop","live_row_Prac","live_row_Prac_loop","logfile","month","mouse_backend","opensesame_codename","opensesame_version","osf_always_upload_experiment","osf_id","repeat_cycle","reset_loop","response","response_Pictures_Break","response_Pictures_End","response_Pictures_response","response_Start_C","response_Start_E","response_Target_response_Prac","response_Welcome_PP_C","response_Welcome_PP_E","response_time","response_time_Pictures_Break","response_time_Pictures_End","response_time_Pictures_response","response_time_Start_C","response_time_Start_E","response_time_Target_response_Prac","response_time_Welcome_PP_C","response_time_Welcome_PP_E","round_decimals","sampler_backend","sound_buf_size","sound_channels","sound_freq","sound_sample_size","start","subject_nr","subject_parity","time_Check_This","time_Disable_Mouse","time_EXP","time_LAB_SEED","time_Language_Selection","time_List_Select","time_List_Selection","time_Pictures_Break","time_Pictures_End","time_Pictures_Exp","time_Pictures_Fixation","time_Pictures_Fixation_Prac","time_Pictures_Prac","time_Pictures_Start","time_Pictures_Target","time_Pictures_Trial","time_Pictures_Welcome","time_Pictures_loop","time_Pictures_response","time_Pictures_response_correct","time_Pictures_response_noans","time_Pictures_response_wrong","time_Post","time_Prac","time_Prac_Count_1","time_Prac_Reset","time_Prac_Trial","time_Prac_loop","time_Prac_seq","time_Prac_setup","time_Start_C","time_Start_E","time_Target_Prac","time_Target_response_Prac","time_Target_response_correct_Prac","time_Target_response_noans_Prac_1","time_Target_response_wrong_Prac_1","time_Trial_logger","time_Welcome_PP_C","time_Welcome_PP_E","time_postdata_C","time_postdata_E","title","total_correct","total_response_time","total_responses","uniform_coordinates","width","year"
"F","100","F","F","PP_LIST1.csv","watch.jpg","skirt.jpg","85.7142857143","85.7142857143","464.285714286","464.285714286","#ffffff","yes","legacy","legacy","legacy","0","uniform","0","0","undefined","1","undefined","6","f","0","0","0","0","0","0","0","NA","0","0","0","5","0","0","0","0","0","0","0","0","0","0","NA","0","5","0","5","0","0","0","0","0","5","5","5","5","5","0","0","0","0","0","02/08/19 22:56:53","Matching Tasks","yes","","OrientationCrossLanguages_2018PSA_PP_1.1.0.osexp","D:/core/Research/OpenSci/PSA/2018/2017_submission_orientation_generalicity/Script","no","chinese-japanese-korean","no","18","no","#0000ff","no","Ok","no","Male","768","legacy","yes","no","0","0","1","5","D:/core/Research/OpenSci/PSA/2018/2017_submission_orientation_generalicity/EXPDATA/raw_data/PP-1.csv","9","legacy","Kafkaesque Koffka","3.2.6","yes","5a7ce671e83246000deafe81","0","0","j","NA","NA","j","NA","space","f","NA","space","362","NA","NA","362","NA","681","572","NA","1006","2","legacy","1024","2","48000","-16","EXP","1","odd","NA","19129","1400","1405","4121","19118","19118","NA","NA","30152","30226","27860","20145","29462","30727","30225","19129","30152","30727","NA","NA","31091","NA","20145","29439","20159","27859","20159","20159","20145","NA","29463","28365","28365","28939","NA","NA","31591","NA","19130","NA","5505","Orientation_PSA2018","6","3250","7","yes","1024","1002"
"F","100","F","F","PP_LIST1.csv","wrench.jpg","piano.jpg","75","75","437.5","437.5","#ffffff","yes","legacy","legacy","legacy","0","uniform","0","0","undefined","1","undefined","6","f","0","0","0","0","0","0","0","NA","1","0","1","5","0","0","1","1","0","0","1","1","1","1","NA","0","5","0","5","0","0","0","0","0","5","5","5","5","5","1","0","0","0","0","02/08/19 22:56:53","Matching Tasks","yes","","OrientationCrossLanguages_2018PSA_PP_1.1.0.osexp","D:/core/Research/OpenSci/PSA/2018/2017_submission_orientation_generalicity/Script","no","chinese-japanese-korean","no","18","no","#0000ff","no","Ok","no","Male","768","legacy","yes","no","1","1","1","5","D:/core/Research/OpenSci/PSA/2018/2017_submission_orientation_generalicity/EXPDATA/raw_data/PP-1.csv","9","legacy","Kafkaesque Koffka","3.2.6","yes","5a7ce671e83246000deafe81","0","0","j","NA","NA","j","NA","space","f","NA","space","250","NA","NA","250","NA","681","572","NA","1006","2","legacy","1024","2","48000","-16","EXP","1","odd","NA","19129","1400","1405","4121","19118","19118","NA","NA","30152","31685","27860","20145","29462","32186","31683","19129","30152","32186","NA","NA","32438","NA","20145","29439","20159","27859","20159","20159","20145","NA","29463","28365","28365","28939","NA","NA","32938","NA","19130","NA","5505","Orientation_PSA2018","6","3500","8","yes","1024","1002"
"Y","100","V","V","PP_LIST1.csv","clothespinV.jpg","clothespinV.jpg","77.7777777778","77.7777777778","429.111111111","429.111111111","#ffffff","yes","legacy","legacy","legacy","0","uniform","1","1","undefined","1","undefined","6","j","0","0","0","0","0","0","0","NA","2","0","2","5","0","0","2","2","0","0","2","2","2","2","NA","0","5","0","5","0","0","0","0","0","5","5","5","5","5","2","0","0","0","0","02/08/19 22:56:53","Matching Tasks","yes","","OrientationCrossLanguages_2018PSA_PP_1.1.0.osexp","D:/core/Research/OpenSci/PSA/2018/2017_submission_orientation_generalicity/Script","no","chinese-japanese-korean","no","18","no","#0000ff","no","Ok","no","Male","768","legacy","yes","no","2","2","1","5","D:/core/Research/OpenSci/PSA/2018/2017_submission_orientation_generalicity/EXPDATA/raw_data/PP-1.csv","9","legacy","Kafkaesque Koffka","3.2.6","yes","5a7ce671e83246000deafe81","0","0","j","NA","NA","j","NA","space","f","NA","space","362","NA","NA","362","NA","681","572","NA","1006","2","legacy","1024","2","48000","-16","EXP","1","odd","NA","19129","1400","1405","4121","19118","19118","NA","NA","30152","33031","27860","20145","29462","33533","33030","19129","30152","33533","33897","NA","32438","NA","20145","29439","20159","27859","20159","20159","20145","NA","29463","28365","28365","28939","NA","NA","34397","NA","19130","NA","5505","Orientation_PSA2018","7","3862","9","yes","1024","1002"
"Y","100","V","V","PP_LIST1.csv","crayonV.jpg","crayonV.jpg","80","80","418.2","418.2","#ffffff","yes","legacy","legacy","legacy","0","uniform","1","1","undefined","1","undefined","6","j","0","0","0","0","0","0","0","NA","3","0","3","5","0","0","3","3","0","0","3","3","3","3","NA","0","5","0","5","0","0","0","0","0","5","5","5","5","5","3","0","0","0","0","02/08/19 22:56:53","Matching Tasks","yes","","OrientationCrossLanguages_2018PSA_PP_1.1.0.osexp","D:/core/Research/OpenSci/PSA/2018/2017_submission_orientation_generalicity/Script","no","chinese-japanese-korean","no","18","no","#0000ff","no","Ok","no","Male","768","legacy","yes","no","3","3","1","5","D:/core/Research/OpenSci/PSA/2018/2017_submission_orientation_generalicity/EXPDATA/raw_data/PP-1.csv","9","legacy","Kafkaesque Koffka","3.2.6","yes","5a7ce671e83246000deafe81","0","0","j","NA","NA","j","NA","space","f","NA","space","320","NA","NA","320","NA","681","572","NA","1006","2","legacy","1024","2","48000","-16","EXP","1","odd","NA","19129","1400","1405","4121","19118","19118","NA","NA","30152","34489","27860","20145","29462","34990","34488","19129","30152","34990","35312","NA","32438","NA","20145","29439","20159","27859","20159","20159","20145","NA","29463","28365","28365","28939","NA","NA","35812","NA","19130","NA","5505","Orientation_PSA2018","8","4182","10","yes","1024","1002"
"F","100","F","F","PP_LIST1.csv","tiger.jpg","wndmil.jpg","72.7272727273","72.7272727273","412.454545455","412.454545455","#ffffff","yes","legacy","legacy","legacy","0","uniform","0","0","undefined","1","undefined","6","f","0","0","0","0","0","0","0","NA","4","0","4","5","0","0","4","4","0","0","4","4","4","4","NA","0","5","0","5","0","0","0","0","0","5","5","5","5","5","4","0","0","0","0","02/08/19 22:56:53","Matching Tasks","yes","","OrientationCrossLanguages_2018PSA_PP_1.1.0.osexp","D:/core/Research/OpenSci/PSA/2018/2017_submission_orientation_generalicity/Script","no","chinese-japanese-korean","no","18","no","#0000ff","no","Ok","no","Male","768","legacy","yes","no","4","4","1","5","D:/core/Research/OpenSci/PSA/2018/2017_submission_orientation_generalicity/EXPDATA/raw_data/PP-1.csv","9","legacy","Kafkaesque Koffka","3.2.6","yes","5a7ce671e83246000deafe81","0","0","j","NA","NA","j","NA","space","f","NA","space","355","NA","NA","355","NA","681","572","NA","1006","2","legacy","1024","2","48000","-16","EXP","1","odd","NA","19129","1400","1405","4121","19118","19118","NA","NA","30152","35901","27860","20145","29462","36402","35899","19129","30152","36402","35312","NA","36759","NA","20145","29439","20159","27859","20159","20159","20145","NA","29463","28365","28365","28939","NA","NA","37259","NA","19130","NA","5505","Orientation_PSA2018","8","4537","11","yes","1024","1002"
"F","100","F","F","PP_LIST1.csv","spider.jpg","couch.jpg","66.6666666667","66.6666666667","405","405","#ffffff","yes","legacy","legacy","legacy","0","uniform","0","0","undefined","1","undefined","6","f","0","0","0","0","0","0","0","NA","5","0","5","5","0","0","5","5","0","0","5","5","5","5","NA","0","5","0","5","0","0","0","0","0","5","5","5","5","5","5","0","0","0","0","02/08/19 22:56:53","Matching Tasks","yes","","OrientationCrossLanguages_2018PSA_PP_1.1.0.osexp","D:/core/Research/OpenSci/PSA/2018/2017_submission_orientation_generalicity/Script","no","chinese-japanese-korean","no","18","no","#0000ff","no","Ok","no","Male","768","legacy","yes","no","5","5","1","5","D:/core/Research/OpenSci/PSA/2018/2017_submission_orientation_generalicity/EXPDATA/raw_data/PP-1.csv","9","legacy","Kafkaesque Koffka","3.2.6","yes","5a7ce671e83246000deafe81","0","0","j","NA","NA","j","NA","space","f","NA","space","323","NA","NA","323","NA","681","572","NA","1006","2","legacy","1024","2","48000","-16","EXP","1","odd","NA","19129","1400","1405","4121","19118","19118","NA","NA","30152","37385","27860","20145","29462","37886","37383","19129","30152","37886","35312","NA","38210","NA","20145","29439","20159","27859","20159","20159","20145","NA","29463","28365","28365","28939","NA","NA","38711","NA","19130","NA","5505","Orientation_PSA2018","8","4860","12","yes","1024","1002"
"Y","100","H","H","PP_LIST1.csv","bowlH.jpg","bowlH.jpg","69.2307692308","69.2307692308","397.076923077","397.076923077","#ffffff","yes","legacy","legacy","legacy","0","uniform","1","1","undefined","1","undefined","6","j","0","0","0","0","0","0","0","NA","6","0","6","5","0","0","6","6","0","0","6","6","6","6","NA","0","5","0","5","0","0","0","0","0","5","5","5","5","5","6","0","0","0","0","02/08/19 22:56:53","Matching Tasks","yes","","OrientationCrossLanguages_2018PSA_PP_1.1.0.osexp","D:/core/Research/OpenSci/PSA/2018/2017_submission_orientation_generalicity/Script","no","chinese-japanese-korean","no","18","no","#0000ff","no","Ok","no","Male","768","legacy","yes","no","6","6","1","5","D:/core/Research/OpenSci/PSA/2018/2017_submission_orientation_generalicity/EXPDATA/raw_data/PP-1.csv","9","legacy","Kafkaesque Koffka","3.2.6","yes","5a7ce671e83246000deafe81","0","0","j","NA","NA","j","NA","space","f","NA","space","302","NA","NA","302","NA","681","572","NA","1006","2","legacy","1024","2","48000","-16","EXP","1","odd","NA","19129","1400","1405","4121","19118","19118","NA","NA","30152","38806","27860","20145","29462","39311","38804","19129","30152","39311","39616","NA","38210","NA","20145","29439","20159","27859","20159","20159","20145","NA","29463","28365","28365","28939","NA","NA","40116","NA","19130","NA","5505","Orientation_PSA2018","9","5162","13","yes","1024","1002"
"N","100","H","V","PP_LIST1.csv","glassH.jpg","glassV.jpg","71.4285714286","71.4285714286","401.214285714","401.214285714","#ffffff","yes","legacy","legacy","legacy","0","uniform","1","1","undefined","1","undefined","6","j","0","0","0","0","0","0","0","NA","7","0","7","5","0","0","7","7","0","0","7","7","7","7","NA","0","5","0","5","0","0","0","0","0","5","5","5","5","5","7","0","0","0","0","02/08/19 22:56:53","Matching Tasks","yes","","OrientationCrossLanguages_2018PSA_PP_1.1.0.osexp","D:/core/Research/OpenSci/PSA/2018/2017_submission_orientation_generalicity/Script","no","chinese-japanese-korean","no","18","no","#0000ff","no","Ok","no","Male","768","legacy","yes","no","7","7","1","5","D:/core/Research/OpenSci/PSA/2018/2017_submission_orientation_generalicity/EXPDATA/raw_data/PP-1.csv","9","legacy","Kafkaesque Koffka","3.2.6","yes","5a7ce671e83246000deafe81","0","0","j","NA","NA","j","NA","space","f","NA","space","455","NA","NA","455","NA","681","572","NA","1006","2","legacy","1024","2","48000","-16","EXP","1","odd","NA","19129","1400","1405","4121","19118","19118","NA","NA","30152","40210","27860","20145","29462","40711","40209","19129","30152","40711","41169","NA","38210","NA","20145","29439","20159","27859","20159","20159","20145","NA","29463","28365","28365","28939","NA","NA","41669","NA","19130","NA","5505","Orientation_PSA2018","10","5617","14","yes","1024","1002"
"F","100","F","F","PP_LIST1.csv","skirt.jpg","tlphon.jpg","66.6666666667","66.6666666667","391.066666667","391.066666667","#ffffff","yes","legacy","legacy","legacy","0","uniform","0","0","undefined","1","undefined","6","f","0","0","0","0","0","0","0","NA","8","0","8","5","0","0","8","8","0","0","8","8","8","8","NA","0","5","0","5","0","0","0","0","0","5","5","5","5","5","8","0","0","0","0","02/08/19 22:56:53","Matching Tasks","yes","","OrientationCrossLanguages_2018PSA_PP_1.1.0.osexp","D:/core/Research/OpenSci/PSA/2018/2017_submission_orientation_generalicity/Script","no","chinese-japanese-korean","no","18","no","#0000ff","no","Ok","no","Male","768","legacy","yes","no","8","8","1","5","D:/core/Research/OpenSci/PSA/2018/2017_submission_orientation_generalicity/EXPDATA/raw_data/PP-1.csv","9","legacy","Kafkaesque Koffka","3.2.6","yes","5a7ce671e83246000deafe81","0","0","j","NA","NA","j","NA","space","f","NA","space","249","NA","NA","249","NA","681","572","NA","1006","2","legacy","1024","2","48000","-16","EXP","1","odd","NA","19129","1400","1405","4121","19118","19118","NA","NA","30152","41755","27860","20145","29462","42260","41754","19129","30152","42260","41169","NA","42511","NA","20145","29439","20159","27859","20159","20159","20145","NA","29463","28365","28365","28939","NA","NA","43011","NA","19130","NA","5505","Orientation_PSA2018","10","5866","15","yes","1024","1002"
"N","100","H","V","PP_LIST1.csv","ironH.jpg","ironV.jpg","68.75","68.75","395.8125","395.8125","#ffffff","yes","legacy","legacy","legacy","0","uniform","1","1","undefined","1","undefined","6","j","0","0","0","0","0","0","0","NA","9","0","9","5","0","0","9","9","0","0","9","9","9","9","NA","0","5","0","5","0","0","0","0","0","5","5","5","5","5","9","0","0","0","0","02/08/19 22:56:53","Matching Tasks","yes","","OrientationCrossLanguages_2018PSA_PP_1.1.0.osexp","D:/core/Research/OpenSci/PSA/2018/2017_submission_orientation_generalicity/Script","no","chinese-japanese-korean","no","18","no","#0000ff","no","Ok","no","Male","768","legacy","yes","no","9","9","1","5","D:/core/Research/OpenSci/PSA/2018/2017_submission_orientation_generalicity/EXPDATA/raw_data/PP-1.csv","9","legacy","Kafkaesque Koffka","3.2.6","yes","5a7ce671e83246000deafe81","0","0","j","NA","NA","j","NA","space","f","NA","space","467","NA","NA","467","NA","681","572","NA","1006","2","legacy","1024","2","48000","-16","EXP","1","odd","NA","19129","1400","1405","4121","19118","19118","NA","NA","30152","43099","27860","20145","29462","43600","43097","19129","30152","43600","44069","NA","42511","NA","20145","29439","20159","27859","20159","20159","20145","NA","29463","28365","28365","28939","NA","NA","44569","NA","19130","NA","5505","Orientation_PSA2018","11","6333","16","yes","1024","1002"
"F","100","F","F","PP_LIST1.csv","mitten.jpg","needle.jpg","64.7058823529","64.7058823529","391.235294118","391.235294118","#ffffff","yes","legacy","legacy","legacy","0","uniform","0","0","undefined","1","undefined","6","f","0","0","0","0","0","0","0","NA","10","0","10","5","0","0","10","10","0","0","10","10","10","10","NA","0","5","0","5","0","0","0","0","0","5","5","5","5","5","10","0","0","0","0","02/08/19 22:56:53","Matching Tasks","yes","","OrientationCrossLanguages_2018PSA_PP_1.1.0.osexp","D:/core/Research/OpenSci/PSA/2018/2017_submission_orientation_generalicity/Script","no","chinese-japanese-korean","no","18","no","#0000ff","no","Ok","no","Male","768","legacy","yes","no","10","10","1","5","D:/core/Research/OpenSci/PSA/2018/2017_submission_orientation_generalicity/EXPDATA/raw_data/PP-1.csv","9","legacy","Kafkaesque Koffka","3.2.6","yes","5a7ce671e83246000deafe81","0","0","j","NA","NA","j","NA","space","f","NA","space","318","NA","NA","318","NA","681","572","NA","1006","2","legacy","1024","2","48000","-16","EXP","1","odd","NA","19129","1400","1405","4121","19118","19118","NA","NA","30152","44664","27860","20145","29462","45165","44662","19129","30152","45165","44069","NA","45484","NA","20145","29439","20159","27859","20159","20159","20145","NA","29463","28365","28365","28939","NA","NA","45984","NA","19130","NA","5505","Orientation_PSA2018","11","6651","17","yes","1024","1002"
"F","100","F","F","PP_LIST1.csv","stove.jpg","ftball.jpg","61.1111111111","61.1111111111","389.555555556","389.555555556","#ffffff","yes","legacy","legacy","legacy","0","uniform","0","0","undefined","1","undefined","6","f","0","0","0","0","0","0","0","NA","11","0","11","5","0","0","11","11","0","0","11","11","11","11","NA","0","5","0","5","0","0","0","0","0","5","5","5","5","5","11","0","0","0","0","02/08/19 22:56:53","Matching Tasks","yes","","OrientationCrossLanguages_2018PSA_PP_1.1.0.osexp","D:/core/Research/OpenSci/PSA/2018/2017_submission_orientation_generalicity/Script","no","chinese-japanese-korean","no","18","no","#0000ff","no","Ok","no","Male","768","legacy","yes","no","11","11","1","5","D:/core/Research/OpenSci/PSA/2018/2017_submission_orientation_generalicity/EXPDATA/raw_data/PP-1.csv","9","legacy","Kafkaesque Koffka","3.2.6","yes","5a7ce671e83246000deafe81","0","0","j","NA","NA","j","NA","space","f","NA","space","361","NA","NA","361","NA","681","572","NA","1006","2","legacy","1024","2","48000","-16","EXP","1","odd","NA","19129","1400","1405","4121","19118","19118","NA","NA","30152","46070","27860","20145","29462","46571","46069","19129","30152","46571","44069","NA","46935","NA","20145","29439","20159","27859","20159","20159","20145","NA","29463","28365","28365","28939","NA","NA","47436","NA","19130","NA","5505","Orientation_PSA2018","11","7012","18","yes","1024","1002"
"F","100","F","F","PP_LIST1.csv","trmpet.jpg","tapedispenser.jpg","57.8947368421","57.8947368421","394.842105263","394.842105263","#ffffff","yes","legacy","legacy","legacy","0","uniform","0","0","undefined","1","undefined","6","f","0","0","0","0","0","0","0","NA","12","0","12","5","0","0","12","12","0","0","12","12","12","12","NA","0","5","0","5","0","0","0","0","0","5","5","5","5","5","12","0","0","0","0","02/08/19 22:56:53","Matching Tasks","yes","","OrientationCrossLanguages_2018PSA_PP_1.1.0.osexp","D:/core/Research/OpenSci/PSA/2018/2017_submission_orientation_generalicity/Script","no","chinese-japanese-korean","no","18","no","#0000ff","no","Ok","no","Male","768","legacy","yes","no","12","12","1","5","D:/core/Research/OpenSci/PSA/2018/2017_submission_orientation_generalicity/EXPDATA/raw_data/PP-1.csv","9","legacy","Kafkaesque Koffka","3.2.6","yes","5a7ce671e83246000deafe81","0","0","j","NA","NA","j","NA","space","f","NA","space","490","NA","NA","490","NA","681","572","NA","1006","2","legacy","1024","2","48000","-16","EXP","1","odd","NA","19129","1400","1405","4121","19118","19118","NA","NA","30152","47521","27860","20145","29462","48022","47519","19129","30152","48022","44069","NA","48514","NA","20145","29439","20159","27859","20159","20159","20145","NA","29463","28365","28365","28939","NA","NA","49015","NA","19130","NA","5505","Orientation_PSA2018","11","7502","19","yes","1024","1002"
"Y","100","V","V","PP_LIST1.csv","caterpillarV.jpg","caterpillarV.jpg","60","60","387.8","387.8","#ffffff","yes","legacy","legacy","legacy","0","uniform","1","1","undefined","1","undefined","6","j","0","0","0","0","0","0","0","NA","13","0","13","5","0","0","13","13","0","0","13","13","13","13","NA","0","5","0","5","0","0","0","0","0","5","5","5","5","5","13","0","0","0","0","02/08/19 22:56:53","Matching Tasks","yes","","OrientationCrossLanguages_2018PSA_PP_1.1.0.osexp","D:/core/Research/OpenSci/PSA/2018/2017_submission_orientation_generalicity/Script","no","chinese-japanese-korean","no","18","no","#0000ff","no","Ok","no","Male","768","legacy","yes","no","13","13","1","5","D:/core/Research/OpenSci/PSA/2018/2017_submission_orientation_generalicity/EXPDATA/raw_data/PP-1.csv","9","legacy","Kafkaesque Koffka","3.2.6","yes","5a7ce671e83246000deafe81","0","0","j","NA","NA","j","NA","space","f","NA","space","254","NA","NA","254","NA","681","572","NA","1006","2","legacy","1024","2","48000","-16","EXP","1","odd","NA","19129","1400","1405","4121","19118","19118","NA","NA","30152","49111","27860","20145","29462","49612","49109","19129","30152","49612","49868","NA","48514","NA","20145","29439","20159","27859","20159","20159","20145","NA","29463","28365","28365","28939","NA","NA","50369","NA","19130","NA","5505","Orientation_PSA2018","12","7756","20","yes","1024","1002"
"F","100","F","F","PP_LIST1.csv","nut.jpg","watch.jpg","57.1428571429","57.1428571429","383.142857143","383.142857143","#ffffff","yes","legacy","legacy","legacy","0","uniform","0","0","undefined","1","undefined","6","f","0","0","0","0","0","0","0","NA","14","0","14","5","0","0","14","14","0","0","14","14","14","14","NA","0","5","0","5","0","0","0","0","0","5","5","5","5","5","14","0","0","0","0","02/08/19 22:56:53","Matching Tasks","yes","","OrientationCrossLanguages_2018PSA_PP_1.1.0.osexp","D:/core/Research/OpenSci/PSA/2018/2017_submission_orientation_generalicity/Script","no","chinese-japanese-korean","no","18","no","#0000ff","no","Ok","no","Male","768","legacy","yes","no","14","14","1","5","D:/core/Research/OpenSci/PSA/2018/2017_submission_orientation_generalicity/EXPDATA/raw_data/PP-1.csv","9","legacy","Kafkaesque Koffka","3.2.6","yes","5a7ce671e83246000deafe81","0","0","j","NA","NA","j","NA","space","f","NA","space","290","NA","NA","290","NA","681","572","NA","1006","2","legacy","1024","2","48000","-16","EXP","1","odd","NA","19129","1400","1405","4121","19118","19118","NA","NA","30152","50471","27860","20145","29462","50972","50470","19129","30152","50972","49868","NA","51264","NA","20145","29439","20159","27859","20159","20159","20145","NA","29463","28365","28365","28939","NA","NA","51764","NA","19130","NA","5505","Orientation_PSA2018","12","8046","21","yes","1024","1002"
"Y","100","H","H","PP_LIST1.csv","bottleH.jpg","bottleH.jpg","59.0909090909","59.0909090909","376.318181818","376.318181818","#ffffff","yes","legacy","legacy","legacy","0","uniform","1","1","undefined","1","undefined","6","j","0","0","0","0","0","0","0","NA","15","0","15","5","0","0","15","15","0","0","15","15","15","15","NA","0","5","0","5","0","0","0","0","0","5","5","5","5","5","15","0","0","0","0","02/08/19 22:56:53","Matching Tasks","yes","","OrientationCrossLanguages_2018PSA_PP_1.1.0.osexp","D:/core/Research/OpenSci/PSA/2018/2017_submission_orientation_generalicity/Script","no","chinese-japanese-korean","no","18","no","#0000ff","no","Ok","no","Male","768","legacy","yes","no","15","15","1","5","D:/core/Research/OpenSci/PSA/2018/2017_submission_orientation_generalicity/EXPDATA/raw_data/PP-1.csv","9","legacy","Kafkaesque Koffka","3.2.6","yes","5a7ce671e83246000deafe81","0","0","j","NA","NA","j","NA","space","f","NA","space","233","NA","NA","233","NA","681","572","NA","1006","2","legacy","1024","2","48000","-16","EXP","1","odd","NA","19129","1400","1405","4121","19118","19118","NA","NA","30152","51852","27860","20145","29462","52353","51851","19129","30152","52353","52588","NA","51264","NA","20145","29439","20159","27859","20159","20159","20145","NA","29463","28365","28365","28939","NA","NA","53089","NA","19130","NA","5505","Orientation_PSA2018","13","8279","22","yes","1024","1002"
"F","100","F","F","PP_LIST1.csv","couch.jpg","spider.jpg","56.5217391304","56.5217391304","370.347826087","370.347826087","#ffffff","yes","legacy","legacy","legacy","0","uniform","0","0","undefined","1","undefined","6","f","0","0","0","0","0","0","0","NA","16","0","16","5","0","0","16","16","0","0","16","16","16","16","NA","0","5","0","5","0","0","0","0","0","5","5","5","5","5","16","0","0","0","0","02/08/19 22:56:53","Matching Tasks","yes","","OrientationCrossLanguages_2018PSA_PP_1.1.0.osexp","D:/core/Research/OpenSci/PSA/2018/2017_submission_orientation_generalicity/Script","no","chinese-japanese-korean","no","18","no","#0000ff","no","Ok","no","Male","768","legacy","yes","no","16","16","1","5","D:/core/Research/OpenSci/PSA/2018/2017_submission_orientation_generalicity/EXPDATA/raw_data/PP-1.csv","9","legacy","Kafkaesque Koffka","3.2.6","yes","5a7ce671e83246000deafe81","0","0","j","NA","NA","j","NA","space","f","NA","space","239","NA","NA","239","NA","681","572","NA","1006","2","legacy","1024","2","48000","-16","EXP","1","odd","NA","19129","1400","1405","4121","19118","19118","NA","NA","30152","53182","27860","20145","29462","53683","53180","19129","30152","53683","52588","NA","53925","NA","20145","29439","20159","27859","20159","20159","20145","NA","29463","28365","28365","28939","NA","NA","54425","NA","19130","NA","5505","Orientation_PSA2018","13","8518","23","yes","1024","1002"
"N","100","H","V","PP_LIST1.csv","guitarH.jpg","guitarV.jpg","58.3333333333","58.3333333333","364","364","#ffffff","yes","legacy","legacy","legacy","0","uniform","1","1","undefined","1","undefined","6","j","0","0","0","0","0","0","0","NA","17","0","17","5","0","0","17","17","0","0","17","17","17","17","NA","0","5","0","5","0","0","0","0","0","5","5","5","5","5","17","0","0","0","0","02/08/19 22:56:53","Matching Tasks","yes","","OrientationCrossLanguages_2018PSA_PP_1.1.0.osexp","D:/core/Research/OpenSci/PSA/2018/2017_submission_orientation_generalicity/Script","no","chinese-japanese-korean","no","18","no","#0000ff","no","Ok","no","Male","768","legacy","yes","no","17","17","1","5","D:/core/Research/OpenSci/PSA/2018/2017_submission_orientation_generalicity/EXPDATA/raw_data/PP-1.csv","9","legacy","Kafkaesque Koffka","3.2.6","yes","5a7ce671e83246000deafe81","0","0","j","NA","NA","j","NA","space","f","NA","space","218","NA","NA","218","NA","681","572","NA","1006","2","legacy","1024","2","48000","-16","EXP","1","odd","NA","19129","1400","1405","4121","19118","19118","NA","NA","30152","54529","27860","20145","29462","55035","54528","19129","30152","55035","55256","NA","53925","NA","20145","29439","20159","27859","20159","20159","20145","NA","29463","28365","28365","28939","NA","NA","55756","NA","19130","NA","5505","Orientation_PSA2018","14","8736","24","yes","1024","1002"
"F","100","F","F","PP_LIST1.csv","house.jpg","ring.jpg","56","56","359.16","359.16","#ffffff","yes","legacy","legacy","legacy","0","uniform","0","0","undefined","1","undefined","6","f","0","0","0","0","0","0","0","NA","18","0","18","5","0","0","18","18","0","0","18","18","18","18","NA","0","5","0","5","0","0","0","0","0","5","5","5","5","5","18","0","0","0","0","02/08/19 22:56:53","Matching Tasks","yes","","OrientationCrossLanguages_2018PSA_PP_1.1.0.osexp","D:/core/Research/OpenSci/PSA/2018/2017_submission_orientation_generalicity/Script","no","chinese-japanese-korean","no","18","no","#0000ff","no","Ok","no","Male","768","legacy","yes","no","18","18","1","5","D:/core/Research/OpenSci/PSA/2018/2017_submission_orientation_generalicity/EXPDATA/raw_data/PP-1.csv","9","legacy","Kafkaesque Koffka","3.2.6","yes","5a7ce671e83246000deafe81","0","0","j","NA","NA","j","NA","space","f","NA","space","243","NA","NA","243","NA","681","572","NA","1006","2","legacy","1024","2","48000","-16","EXP","1","odd","NA","19129","1400","1405","4121","19118","19118","NA","NA","30152","55842","27860","20145","29462","56343","55841","19129","30152","56343","55256","NA","56588","NA","20145","29439","20159","27859","20159","20159","20145","NA","29463","28365","28365","28939","NA","NA","57088","NA","19130","NA","5505","Orientation_PSA2018","14","8979","25","yes","1024","1002"
"F","100","F","F","PP_LIST1.csv","piano.jpg","sutcse.jpg","53.8461538462","53.8461538462","354.5","354.5","#ffffff","yes","legacy","legacy","legacy","0","uniform","0","0","undefined","1","undefined","6","f","0","0","0","0","0","0","0","NA","19","0","19","5","0","0","19","19","0","0","19","19","19","19","NA","0","5","0","5","0","0","0","0","0","5","5","5","5","5","19","0","0","0","0","02/08/19 22:56:53","Matching Tasks","yes","","OrientationCrossLanguages_2018PSA_PP_1.1.0.osexp","D:/core/Research/OpenSci/PSA/2018/2017_submission_orientation_generalicity/Script","no","chinese-japanese-korean","no","18","no","#0000ff","no","Ok","no","Male","768","legacy","yes","no","19","19","1","5","D:/core/Research/OpenSci/PSA/2018/2017_submission_orientation_generalicity/EXPDATA/raw_data/PP-1.csv","9","legacy","Kafkaesque Koffka","3.2.6","yes","5a7ce671e83246000deafe81","0","0","j","NA","NA","j","NA","space","f","NA","space","238","NA","NA","238","NA","681","572","NA","1006","2","legacy","1024","2","48000","-16","EXP","1","odd","NA","19129","1400","1405","4121","19118","19118","NA","NA","30152","57175","27860","20145","29462","57676","57173","19129","30152","57676","55256","NA","57916","NA","20145","29439","20159","27859","20159","20159","20145","NA","29463","28365","28365","28939","NA","NA","58416","NA","19130","NA","5505","Orientation_PSA2018","14","9217","26","yes","1024","1002"
"F","100","F","F","PP_LIST1.csv","umberella.jpg","flower.jpg","51.8518518519","51.8518518519","391.962962963","391.962962963","#ffffff","yes","legacy","legacy","legacy","0","uniform","0","0","undefined","1","undefined","6","f","0","0","0","0","0","0","0","NA","20","0","20","5","0","0","20","20","0","0","20","20","20","20","NA","0","5","0","5","0","0","0","0","0","5","5","5","5","5","20","0","0","0","0","02/08/19 22:56:53","Matching Tasks","yes","","OrientationCrossLanguages_2018PSA_PP_1.1.0.osexp","D:/core/Research/OpenSci/PSA/2018/2017_submission_orientation_generalicity/Script","no","chinese-japanese-korean","no","18","no","#0000ff","no","Ok","no","Male","768","legacy","yes","no","20","20","1","5","D:/core/Research/OpenSci/PSA/2018/2017_submission_orientation_generalicity/EXPDATA/raw_data/PP-1.csv","9","legacy","Kafkaesque Koffka","3.2.6","yes","5a7ce671e83246000deafe81","0","0","j","NA","NA","j","NA","space","f","NA","space","1366","NA","NA","1366","NA","681","572","NA","1006","2","legacy","1024","2","48000","-16","EXP","1","odd","NA","19129","1400","1405","4121","19118","19118","NA","NA","30152","58502","27860","20145","29462","59003","58500","19129","30152","59003","55256","NA","60371","NA","20145","29439","20159","27859","20159","20159","20145","NA","29463","28365","28365","28939","NA","NA","60871","NA","19130","NA","5505","Orientation_PSA2018","14","10583","27","yes","1024","1002"
"F","100","F","F","PP_LIST1.csv","ring.jpg","stove.jpg","50","50","394.785714286","394.785714286","#ffffff","yes","legacy","legacy","legacy","0","uniform","0","0","undefined","1","undefined","6","f","0","0","0","0","0","0","0","NA","21","0","21","5","0","0","21","21","0","0","21","21","21","21","NA","0","5","0","5","0","0","0","0","0","5","5","5","5","5","21","0","0","0","0","02/08/19 22:56:53","Matching Tasks","yes","","OrientationCrossLanguages_2018PSA_PP_1.1.0.osexp","D:/core/Research/OpenSci/PSA/2018/2017_submission_orientation_generalicity/Script","no","chinese-japanese-korean","no","18","no","#0000ff","no","Ok","no","Male","768","legacy","yes","no","21","21","1","5","D:/core/Research/OpenSci/PSA/2018/2017_submission_orientation_generalicity/EXPDATA/raw_data/PP-1.csv","9","legacy","Kafkaesque Koffka","3.2.6","yes","5a7ce671e83246000deafe81","0","0","j","NA","NA","j","NA","space","f","NA","space","471","NA","NA","471","NA","681","572","NA","1006","2","legacy","1024","2","48000","-16","EXP","1","odd","NA","19129","1400","1405","4121","19118","19118","NA","NA","30152","60958","27860","20145","29462","61459","60956","19129","30152","61459","55256","NA","61932","NA","20145","29439","20159","27859","20159","20159","20145","NA","29463","28365","28365","28939","NA","NA","62432","NA","19130","NA","5505","Orientation_PSA2018","14","11054","28","yes","1024","1002"
"Y","100","H","H","PP_LIST1.csv","axeH.jpg","axeH.jpg","51.724137931","51.724137931","407.344827586","407.344827586","#ffffff","yes","legacy","legacy","legacy","0","uniform","1","1","undefined","1","undefined","6","j","0","0","0","0","0","0","0","NA","22","0","22","5","0","0","22","22","0","0","22","22","22","22","NA","0","5","0","5","0","0","0","0","0","5","5","5","5","5","22","0","0","0","0","02/08/19 22:56:53","Matching Tasks","yes","","OrientationCrossLanguages_2018PSA_PP_1.1.0.osexp","D:/core/Research/OpenSci/PSA/2018/2017_submission_orientation_generalicity/Script","no","chinese-japanese-korean","no","18","no","#0000ff","no","Ok","no","Male","768","legacy","yes","no","22","22","1","5","D:/core/Research/OpenSci/PSA/2018/2017_submission_orientation_generalicity/EXPDATA/raw_data/PP-1.csv","9","legacy","Kafkaesque Koffka","3.2.6","yes","5a7ce671e83246000deafe81","0","0","j","NA","NA","j","NA","space","f","NA","space","759","NA","NA","759","NA","681","572","NA","1006","2","legacy","1024","2","48000","-16","EXP","1","odd","NA","19129","1400","1405","4121","19118","19118","NA","NA","30152","62520","27860","20145","29462","63021","62518","19129","30152","63021","63783","NA","61932","NA","20145","29439","20159","27859","20159","20159","20145","NA","29463","28365","28365","28939","NA","NA","64283","NA","19130","NA","5505","Orientation_PSA2018","15","11813","29","yes","1024","1002"
"N","100","H","V","PP_LIST1.csv","pencilH.jpg","pencilV.jpg","53.3333333333","53.3333333333","404.733333333","404.733333333","#ffffff","yes","legacy","legacy","legacy","0","uniform","1","1","undefined","1","undefined","6","j","0","0","0","0","0","0","0","NA","23","0","23","5","0","0","23","23","0","0","23","23","23","23","NA","0","5","0","5","0","0","0","0","0","5","5","5","5","5","23","0","0","0","0","02/08/19 22:56:53","Matching Tasks","yes","","OrientationCrossLanguages_2018PSA_PP_1.1.0.osexp","D:/core/Research/OpenSci/PSA/2018/2017_submission_orientation_generalicity/Script","no","chinese-japanese-korean","no","18","no","#0000ff","no","Ok","no","Male","768","legacy","yes","no","23","23","1","5","D:/core/Research/OpenSci/PSA/2018/2017_submission_orientation_generalicity/EXPDATA/raw_data/PP-1.csv","9","legacy","Kafkaesque Koffka","3.2.6","yes","5a7ce671e83246000deafe81","0","0","j","NA","NA","j","NA","space","f","NA","space","329","NA","NA","329","NA","681","572","NA","1006","2","legacy","1024","2","48000","-16","EXP","1","odd","NA","19129","1400","1405","4121","19118","19118","NA","NA","30152","64380","27860","20145","29462","64881","64379","19129","30152","64881","65212","NA","61932","NA","20145","29439","20159","27859","20159","20159","20145","NA","29463","28365","28365","28939","NA","NA","65712","NA","19130","NA","5505","Orientation_PSA2018","16","12142","30","yes","1024","1002"
"N","100","V","H","PP_LIST1.csv","saltV.jpg","saltH.jpg","100","100","300","300","#ffffff","yes","legacy","legacy","legacy","0","uniform","1","1","undefined","1","undefined","6","j","0","0","0","0","0","0","0","0","24","0","24","5","0","0","24","24","0","0","24","24","24","24","NA","0","5","0","5","0","0","0","0","0","5","5","5","5","5","24","0","0","0","0","02/08/19 22:56:53","Matching Tasks","yes","","OrientationCrossLanguages_2018PSA_PP_1.1.0.osexp","D:/core/Research/OpenSci/PSA/2018/2017_submission_orientation_generalicity/Script","no","chinese-japanese-korean","no","18","no","#0000ff","no","Ok","no","Male","768","legacy","yes","no","24","24","1","5","D:/core/Research/OpenSci/PSA/2018/2017_submission_orientation_generalicity/EXPDATA/raw_data/PP-1.csv","9","legacy","Kafkaesque Koffka","3.2.6","yes","5a7ce671e83246000deafe81","0","0","j","space","NA","j","NA","space","f","NA","space","300","1267","NA","300","NA","681","572","NA","1006","2","legacy","1024","2","48000","-16","EXP","1","odd","NA","19129","1400","1405","4121","19118","19118","65747","NA","30152","67122","27860","20145","29462","67623","67121","19129","30152","67623","67924","NA","61932","NA","20145","29439","20159","27859","20159","20159","20145","NA","29463","28365","28365","28939","NA","NA","68425","NA","19130","NA","5505","Orientation_PSA2018","1","300","1","yes","1024","1002"
"Y","100","V","V","PP_LIST1.csv","flashV.jpg","flashV.jpg","100","100","331.5","331.5","#ffffff","yes","legacy","legacy","legacy","0","uniform","1","1","undefined","1","undefined","6","j","0","0","0","0","0","0","0","0","25","0","25","5","0","0","25","25","0","0","25","25","25","25","NA","0","5","0","5","0","0","0","0","0","5","5","5","5","5","25","0","0","0","0","02/08/19 22:56:53","Matching Tasks","yes","","OrientationCrossLanguages_2018PSA_PP_1.1.0.osexp","D:/core/Research/OpenSci/PSA/2018/2017_submission_orientation_generalicity/Script","no","chinese-japanese-korean","no","18","no","#0000ff","no","Ok","no","Male","768","legacy","yes","no","25","25","1","5","D:/core/Research/OpenSci/PSA/2018/2017_submission_orientation_generalicity/EXPDATA/raw_data/PP-1.csv","9","legacy","Kafkaesque Koffka","3.2.6","yes","5a7ce671e83246000deafe81","0","0","j","space","NA","j","NA","space","f","NA","space","363","1267","NA","363","NA","681","572","NA","1006","2","legacy","1024","2","48000","-16","EXP","1","odd","NA","19129","1400","1405","4121","19118","19118","65747","NA","30152","68519","27860","20145","29462","69020","68517","19129","30152","69020","69384","NA","61932","NA","20145","29439","20159","27859","20159","20159","20145","NA","29463","28365","28365","28939","NA","NA","69884","NA","19130","NA","5505","Orientation_PSA2018","2","663","2","yes","1024","1002"
"F","100","F","F","PP_LIST1.csv","tapedispenser.jpg","wrench.jpg","66.6666666667","66.6666666667","302","302","#ffffff","yes","legacy","legacy","legacy","0","uniform","0","0","undefined","1","undefined","6","f","0","0","0","0","0","0","0","0","26","0","26","5","0","0","26","26","0","0","26","26","26","26","NA","0","5","0","5","0","0","0","0","0","5","5","5","5","5","26","0","0","0","0","02/08/19 22:56:53","Matching Tasks","yes","","OrientationCrossLanguages_2018PSA_PP_1.1.0.osexp","D:/core/Research/OpenSci/PSA/2018/2017_submission_orientation_generalicity/Script","no","chinese-japanese-korean","no","18","no","#0000ff","no","Ok","no","Male","768","legacy","yes","no","26","26","1","5","D:/core/Research/OpenSci/PSA/2018/2017_submission_orientation_generalicity/EXPDATA/raw_data/PP-1.csv","9","legacy","Kafkaesque Koffka","3.2.6","yes","5a7ce671e83246000deafe81","0","0","j","space","NA","j","NA","space","f","NA","space","243","1267","NA","243","NA","681","572","NA","1006","2","legacy","1024","2","48000","-16","EXP","1","odd","NA","19129","1400","1405","4121","19118","19118","65747","NA","30152","69982","27860","20145","29462","70484","69981","19129","30152","70484","69384","NA","70729","NA","20145","29439","20159","27859","20159","20159","20145","NA","29463","28365","28365","28939","NA","NA","71229","NA","19130","NA","5505","Orientation_PSA2018","2","906","3","yes","1024","1002"
"F","100","F","F","PP_LIST1.csv","wndmil.jpg","mitten.jpg","50","50","295.75","295.75","#ffffff","yes","legacy","legacy","legacy","0","uniform","0","0","undefined","1","undefined","6","f","0","0","0","0","0","0","0","0","27","0","27","5","0","0","27","27","0","0","27","27","27","27","NA","0","5","0","5","0","0","0","0","0","5","5","5","5","5","27","0","0","0","0","02/08/19 22:56:53","Matching Tasks","yes","","OrientationCrossLanguages_2018PSA_PP_1.1.0.osexp","D:/core/Research/OpenSci/PSA/2018/2017_submission_orientation_generalicity/Script","no","chinese-japanese-korean","no","18","no","#0000ff","no","Ok","no","Male","768","legacy","yes","no","27","27","1","5","D:/core/Research/OpenSci/PSA/2018/2017_submission_orientation_generalicity/EXPDATA/raw_data/PP-1.csv","9","legacy","Kafkaesque Koffka","3.2.6","yes","5a7ce671e83246000deafe81","0","0","j","space","NA","j","NA","space","f","NA","space","277","1267","NA","277","NA","681","572","NA","1006","2","legacy","1024","2","48000","-16","EXP","1","odd","NA","19129","1400","1405","4121","19118","19118","65747","NA","30152","71361","27860","20145","29462","71861","71359","19129","30152","71861","69384","NA","72139","NA","20145","29439","20159","27859","20159","20159","20145","NA","29463","28365","28365","28939","NA","NA","72639","NA","19130","NA","5505","Orientation_PSA2018","2","1183","4","yes","1024","1002"
"N","100","H","V","PP_LIST1.csv","keyH.jpg","keyV.jpg","60","60","287.8","287.8","#ffffff","yes","legacy","legacy","legacy","0","uniform","1","1","undefined","1","undefined","6","j","0","0","0","0","0","0","0","0","28","0","28","5","0","0","28","28","0","0","28","28","28","28","NA","0","5","0","5","0","0","0","0","0","5","5","5","5","5","28","0","0","0","0","02/08/19 22:56:53","Matching Tasks","yes","","OrientationCrossLanguages_2018PSA_PP_1.1.0.osexp","D:/core/Research/OpenSci/PSA/2018/2017_submission_orientation_generalicity/Script","no","chinese-japanese-korean","no","18","no","#0000ff","no","Ok","no","Male","768","legacy","yes","no","28","28","1","5","D:/core/Research/OpenSci/PSA/2018/2017_submission_orientation_generalicity/EXPDATA/raw_data/PP-1.csv","9","legacy","Kafkaesque Koffka","3.2.6","yes","5a7ce671e83246000deafe81","0","0","j","space","NA","j","NA","space","f","NA","space","256","1267","NA","256","NA","681","572","NA","1006","2","legacy","1024","2","48000","-16","EXP","1","odd","NA","19129","1400","1405","4121","19118","19118","65747","NA","30152","72738","27860","20145","29462","73243","72737","19129","30152","73243","73501","NA","72139","NA","20145","29439","20159","27859","20159","20159","20145","NA","29463","28365","28365","28939","NA","NA","74001","NA","19130","NA","5505","Orientation_PSA2018","3","1439","5","yes","1024","1002"
"Y","100","V","V","PP_LIST1.csv","fire_extinguisherV.jpg","fire_extinguisherV.jpg","66.6666666667","66.6666666667","292.166666667","292.166666667","#ffffff","yes","legacy","legacy","legacy","0","uniform","1","1","undefined","1","undefined","6","j","0","0","0","0","0","0","0","0","29","0","29","5","0","0","29","29","0","0","29","29","29","29","NA","0","5","0","5","0","0","0","0","0","5","5","5","5","5","29","0","0","0","0","02/08/19 22:56:53","Matching Tasks","yes","","OrientationCrossLanguages_2018PSA_PP_1.1.0.osexp","D:/core/Research/OpenSci/PSA/2018/2017_submission_orientation_generalicity/Script","no","chinese-japanese-korean","no","18","no","#0000ff","no","Ok","no","Male","768","legacy","yes","no","29","29","1","5","D:/core/Research/OpenSci/PSA/2018/2017_submission_orientation_generalicity/EXPDATA/raw_data/PP-1.csv","9","legacy","Kafkaesque Koffka","3.2.6","yes","5a7ce671e83246000deafe81","0","0","j","space","NA","j","NA","space","f","NA","space","314","1267","NA","314","NA","681","572","NA","1006","2","legacy","1024","2","48000","-16","EXP","1","odd","NA","19129","1400","1405","4121","19118","19118","65747","NA","30152","74105","27860","20145","29462","74606","74104","19129","30152","74606","74922","NA","72139","NA","20145","29439","20159","27859","20159","20159","20145","NA","29463","28365","28365","28939","NA","NA","75422","NA","19130","NA","5505","Orientation_PSA2018","4","1753","6","yes","1024","1002"
"N","100","V","H","PP_LIST1.csv","scssorV.jpg","scssorH.jpg","71.4285714286","71.4285714286","302.428571429","302.428571429","#ffffff","yes","legacy","legacy","legacy","0","uniform","1","1","undefined","1","undefined","6","j","0","0","0","0","0","0","0","0","30","0","30","5","0","0","30","30","0","0","30","30","30","30","NA","0","5","0","5","0","0","0","0","0","5","5","5","5","5","30","0","0","0","0","02/08/19 22:56:53","Matching Tasks","yes","","OrientationCrossLanguages_2018PSA_PP_1.1.0.osexp","D:/core/Research/OpenSci/PSA/2018/2017_submission_orientation_generalicity/Script","no","chinese-japanese-korean","no","18","no","#0000ff","no","Ok","no","Male","768","legacy","yes","no","30","30","1","5","D:/core/Research/OpenSci/PSA/2018/2017_submission_orientation_generalicity/EXPDATA/raw_data/PP-1.csv","9","legacy","Kafkaesque Koffka","3.2.6","yes","5a7ce671e83246000deafe81","0","0","j","space","NA","j","NA","space","f","NA","space","364","1267","NA","364","NA","681","572","NA","1006","2","legacy","1024","2","48000","-16","EXP","1","odd","NA","19129","1400","1405","4121","19118","19118","65747","NA","30152","75531","27860","20145","29462","76032","75529","19129","30152","76032","76397","NA","72139","NA","20145","29439","20159","27859","20159","20159","20145","NA","29463","28365","28365","28939","NA","NA","76897","NA","19130","NA","5505","Orientation_PSA2018","5","2117","7","yes","1024","1002"
"N","100","V","H","PP_LIST1.csv","penV.jpg","penH.jpg","75","75","321","321","#ffffff","yes","legacy","legacy","legacy","0","uniform","1","1","undefined","1","undefined","6","j","0","0","0","0","0","0","0","0","31","0","31","5","0","0","31","31","0","0","31","31","31","31","NA","0","5","0","5","0","0","0","0","0","5","5","5","5","5","31","0","0","0","0","02/08/19 22:56:53","Matching Tasks","yes","","OrientationCrossLanguages_2018PSA_PP_1.1.0.osexp","D:/core/Research/OpenSci/PSA/2018/2017_submission_orientation_generalicity/Script","no","chinese-japanese-korean","no","18","no","#0000ff","no","Ok","no","Male","768","legacy","yes","no","31","31","1","5","D:/core/Research/OpenSci/PSA/2018/2017_submission_orientation_generalicity/EXPDATA/raw_data/PP-1.csv","9","legacy","Kafkaesque Koffka","3.2.6","yes","5a7ce671e83246000deafe81","0","0","j","space","NA","j","NA","space","f","NA","space","451","1267","NA","451","NA","681","572","NA","1006","2","legacy","1024","2","48000","-16","EXP","1","odd","NA","19129","1400","1405","4121","19118","19118","65747","NA","30152","76993","27860","20145","29462","77494","76992","19129","30152","77494","77947","NA","72139","NA","20145","29439","20159","27859","20159","20159","20145","NA","29463","28365","28365","28939","NA","NA","78447","NA","19130","NA","5505","Orientation_PSA2018","6","2568","8","yes","1024","1002"
"F","100","F","F","PP_LIST1.csv","ladder.jpg","house.jpg","66.6666666667","66.6666666667","320.777777778","320.777777778","#ffffff","yes","legacy","legacy","legacy","0","uniform","0","0","undefined","1","undefined","6","f","0","0","0","0","0","0","0","0","32","0","32","5","0","0","32","32","0","0","32","32","32","32","NA","0","5","0","5","0","0","0","0","0","5","5","5","5","5","32","0","0","0","0","02/08/19 22:56:53","Matching Tasks","yes","","OrientationCrossLanguages_2018PSA_PP_1.1.0.osexp","D:/core/Research/OpenSci/PSA/2018/2017_submission_orientation_generalicity/Script","no","chinese-japanese-korean","no","18","no","#0000ff","no","Ok","no","Male","768","legacy","yes","no","32","32","1","5","D:/core/Research/OpenSci/PSA/2018/2017_submission_orientation_generalicity/EXPDATA/raw_data/PP-1.csv","9","legacy","Kafkaesque Koffka","3.2.6","yes","5a7ce671e83246000deafe81","0","0","j","space","NA","j","NA","space","f","NA","space","319","1267","NA","319","NA","681","572","NA","1006","2","legacy","1024","2","48000","-16","EXP","1","odd","NA","19129","1400","1405","4121","19118","19118","65747","NA","30152","78553","27860","20145","29462","79054","78552","19129","30152","79054","77947","NA","79375","NA","20145","29439","20159","27859","20159","20159","20145","NA","29463","28365","28365","28939","NA","NA","79875","NA","19130","NA","5505","Orientation_PSA2018","6","2887","9","yes","1024","1002"
"F","100","F","F","PP_LIST1.csv","buggy.jpg","glass.jpg","60","60","331.1","331.1","#ffffff","yes","legacy","legacy","legacy","0","uniform","0","0","undefined","1","undefined","6","f","0","0","0","0","0","0","0","0","33","0","33","5","0","0","33","33","0","0","33","33","33","33","NA","0","5","0","5","0","0","0","0","0","5","5","5","5","5","33","0","0","0","0","02/08/19 22:56:53","Matching Tasks","yes","","OrientationCrossLanguages_2018PSA_PP_1.1.0.osexp","D:/core/Research/OpenSci/PSA/2018/2017_submission_orientation_generalicity/Script","no","chinese-japanese-korean","no","18","no","#0000ff","no","Ok","no","Male","768","legacy","yes","no","33","33","1","5","D:/core/Research/OpenSci/PSA/2018/2017_submission_orientation_generalicity/EXPDATA/raw_data/PP-1.csv","9","legacy","Kafkaesque Koffka","3.2.6","yes","5a7ce671e83246000deafe81","0","0","j","space","NA","j","NA","space","f","NA","space","424","1267","NA","424","NA","681","572","NA","1006","2","legacy","1024","2","48000","-16","EXP","1","odd","NA","19129","1400","1405","4121","19118","19118","65747","NA","30152","79961","27860","20145","29462","80462","79959","19129","30152","80462","77947","NA","80887","NA","20145","29439","20159","27859","20159","20159","20145","NA","29463","28365","28365","28939","NA","NA","81387","NA","19130","NA","5505","Orientation_PSA2018","6","3311","10","yes","1024","1002"
"F","100","F","F","PP_LIST1.csv","needle.jpg","tiger.jpg","54.5454545455","54.5454545455","330.090909091","330.090909091","#ffffff","yes","legacy","legacy","legacy","0","uniform","0","0","undefined","1","undefined","6","f","0","0","0","0","0","0","0","0","34","0","34","5","0","0","34","34","0","0","34","34","34","34","NA","0","5","0","5","0","0","0","0","0","5","5","5","5","5","34","0","0","0","0","02/08/19 22:56:53","Matching Tasks","yes","","OrientationCrossLanguages_2018PSA_PP_1.1.0.osexp","D:/core/Research/OpenSci/PSA/2018/2017_submission_orientation_generalicity/Script","no","chinese-japanese-korean","no","18","no","#0000ff","no","Ok","no","Male","768","legacy","yes","no","34","34","1","5","D:/core/Research/OpenSci/PSA/2018/2017_submission_orientation_generalicity/EXPDATA/raw_data/PP-1.csv","9","legacy","Kafkaesque Koffka","3.2.6","yes","5a7ce671e83246000deafe81","0","0","j","space","NA","j","NA","space","f","NA","space","320","1267","NA","320","NA","681","572","NA","1006","2","legacy","1024","2","48000","-16","EXP","1","odd","NA","19129","1400","1405","4121","19118","19118","65747","NA","30152","81474","27860","20145","29462","81975","81473","19129","30152","81975","77947","NA","82297","NA","20145","29439","20159","27859","20159","20159","20145","NA","29463","28365","28365","28939","NA","NA","82797","NA","19130","NA","5505","Orientation_PSA2018","6","3631","11","yes","1024","1002"
"Y","100","H","H","PP_LIST1.csv","broomH.jpg","broomH.jpg","58.3333333333","58.3333333333","332.25","332.25","#ffffff","yes","legacy","legacy","legacy","0","uniform","1","1","undefined","1","undefined","6","j","0","0","0","0","0","0","0","0","35","0","35","5","0","0","35","35","0","0","35","35","35","35","NA","0","5","0","5","0","0","0","0","0","5","5","5","5","5","35","0","0","0","0","02/08/19 22:56:53","Matching Tasks","yes","","OrientationCrossLanguages_2018PSA_PP_1.1.0.osexp","D:/core/Research/OpenSci/PSA/2018/2017_submission_orientation_generalicity/Script","no","chinese-japanese-korean","no","18","no","#0000ff","no","Ok","no","Male","768","legacy","yes","no","35","35","1","5","D:/core/Research/OpenSci/PSA/2018/2017_submission_orientation_generalicity/EXPDATA/raw_data/PP-1.csv","9","legacy","Kafkaesque Koffka","3.2.6","yes","5a7ce671e83246000deafe81","0","0","j","space","NA","j","NA","space","f","NA","space","356","1267","NA","356","NA","681","572","NA","1006","2","legacy","1024","2","48000","-16","EXP","1","odd","NA","19129","1400","1405","4121","19118","19118","65747","NA","30152","82901","27860","20145","29462","83405","82899","19129","30152","83405","83763","NA","82297","NA","20145","29439","20159","27859","20159","20159","20145","NA","29463","28365","28365","28939","NA","NA","84263","NA","19130","NA","5505","Orientation_PSA2018","7","3987","12","yes","1024","1002"
"Y","100","V","V","PP_LIST1.csv","brushV.jpg","brushV.jpg","61.5384615385","61.5384615385","340.769230769","340.769230769","#ffffff","yes","legacy","legacy","legacy","0","uniform","1","1","undefined","1","undefined","6","j","0","0","0","0","0","0","0","0","36","0","36","5","0","0","36","36","0","0","36","36","36","36","NA","0","5","0","5","0","0","0","0","0","5","5","5","5","5","36","0","0","0","0","02/08/19 22:56:53","Matching Tasks","yes","","OrientationCrossLanguages_2018PSA_PP_1.1.0.osexp","D:/core/Research/OpenSci/PSA/2018/2017_submission_orientation_generalicity/Script","no","chinese-japanese-korean","no","18","no","#0000ff","no","Ok","no","Male","768","legacy","yes","no","36","36","1","5","D:/core/Research/OpenSci/PSA/2018/2017_submission_orientation_generalicity/EXPDATA/raw_data/PP-1.csv","9","legacy","Kafkaesque Koffka","3.2.6","yes","5a7ce671e83246000deafe81","0","0","j","space","NA","j","NA","space","f","NA","space","443","1267","NA","443","NA","681","572","NA","1006","2","legacy","1024","2","48000","-16","EXP","1","odd","NA","19129","1400","1405","4121","19118","19118","65747","NA","30152","84357","27860","20145","29462","84859","84356","19129","30152","84859","85304","NA","82297","NA","20145","29439","20159","27859","20159","20159","20145","NA","29463","28365","28365","28939","NA","NA","85806","NA","19130","NA","5505","Orientation_PSA2018","8","4430","13","yes","1024","1002"
"F","100","F","F","PP_LIST1.csv","knife.jpg","ladder.jpg","57.1428571429","57.1428571429","355.214285714","355.214285714","#ffffff","yes","legacy","legacy","legacy","0","uniform","0","0","undefined","1","undefined","6","f","0","0","0","0","0","0","0","0","37","0","37","5","0","0","37","37","0","0","37","37","37","37","NA","0","5","0","5","0","0","0","0","0","5","5","5","5","5","37","0","0","0","0","02/08/19 22:56:53","Matching Tasks","yes","","OrientationCrossLanguages_2018PSA_PP_1.1.0.osexp","D:/core/Research/OpenSci/PSA/2018/2017_submission_orientation_generalicity/Script","no","chinese-japanese-korean","no","18","no","#0000ff","no","Ok","no","Male","768","legacy","yes","no","37","37","1","5","D:/core/Research/OpenSci/PSA/2018/2017_submission_orientation_generalicity/EXPDATA/raw_data/PP-1.csv","9","legacy","Kafkaesque Koffka","3.2.6","yes","5a7ce671e83246000deafe81","0","0","j","space","NA","j","NA","space","f","NA","space","543","1267","NA","543","NA","681","572","NA","1006","2","legacy","1024","2","48000","-16","EXP","1","odd","NA","19129","1400","1405","4121","19118","19118","65747","NA","30152","85901","27860","20145","29462","86406","85900","19129","30152","86406","85304","NA","86951","NA","20145","29439","20159","27859","20159","20159","20145","NA","29463","28365","28365","28939","NA","NA","87451","NA","19130","NA","5505","Orientation_PSA2018","8","4973","14","yes","1024","1002"
"F","100","F","F","PP_LIST1.csv","ftball.jpg","nut.jpg","53.3333333333","53.3333333333","352.733333333","352.733333333","#ffffff","yes","legacy","legacy","legacy","0","uniform","0","0","undefined","1","undefined","6","f","0","0","0","0","0","0","0","0","38","0","38","5","0","0","38","38","0","0","38","38","38","38","NA","0","5","0","5","0","0","0","0","0","5","5","5","5","5","38","0","0","0","0","02/08/19 22:56:53","Matching Tasks","yes","","OrientationCrossLanguages_2018PSA_PP_1.1.0.osexp","D:/core/Research/OpenSci/PSA/2018/2017_submission_orientation_generalicity/Script","no","chinese-japanese-korean","no","18","no","#0000ff","no","Ok","no","Male","768","legacy","yes","no","38","38","1","5","D:/core/Research/OpenSci/PSA/2018/2017_submission_orientation_generalicity/EXPDATA/raw_data/PP-1.csv","9","legacy","Kafkaesque Koffka","3.2.6","yes","5a7ce671e83246000deafe81","0","0","j","space","NA","j","NA","space","f","NA","space","318","1267","NA","318","NA","681","572","NA","1006","2","legacy","1024","2","48000","-16","EXP","1","odd","NA","19129","1400","1405","4121","19118","19118","65747","NA","30152","87546","27860","20145","29462","88047","87544","19129","30152","88047","85304","NA","88367","NA","20145","29439","20159","27859","20159","20159","20145","NA","29463","28365","28365","28939","NA","NA","88867","NA","19130","NA","5505","Orientation_PSA2018","8","5291","15","yes","1024","1002"
"N","100","V","H","PP_LIST1.csv","plateV.jpg","plateH.jpg","56.25","56.25","350.75","350.75","#ffffff","yes","legacy","legacy","legacy","0","uniform","1","1","undefined","1","undefined","6","j","0","0","0","0","0","0","0","0","39","0","39","5","0","0","39","39","0","0","39","39","39","39","NA","0","5","0","5","0","0","0","0","0","5","5","5","5","5","39","0","0","0","0","02/08/19 22:56:53","Matching Tasks","yes","","OrientationCrossLanguages_2018PSA_PP_1.1.0.osexp","D:/core/Research/OpenSci/PSA/2018/2017_submission_orientation_generalicity/Script","no","chinese-japanese-korean","no","18","no","#0000ff","no","Ok","no","Male","768","legacy","yes","no","39","39","1","5","D:/core/Research/OpenSci/PSA/2018/2017_submission_orientation_generalicity/EXPDATA/raw_data/PP-1.csv","9","legacy","Kafkaesque Koffka","3.2.6","yes","5a7ce671e83246000deafe81","0","0","j","space","NA","j","NA","space","f","NA","space","321","1267","NA","321","NA","681","572","NA","1006","2","legacy","1024","2","48000","-16","EXP","1","odd","NA","19129","1400","1405","4121","19118","19118","65747","NA","30152","88968","27860","20145","29462","89469","88966","19129","30152","89469","89792","NA","88367","NA","20145","29439","20159","27859","20159","20159","20145","NA","29463","28365","28365","28939","NA","NA","90292","NA","19130","NA","5505","Orientation_PSA2018","9","5612","16","yes","1024","1002"
"N","100","V","H","PP_LIST1.csv","tireV.jpg","tireH.jpg","58.8235294118","58.8235294118","351.411764706","351.411764706","#ffffff","yes","legacy","legacy","legacy","0","uniform","1","1","undefined","1","undefined","6","j","0","0","0","0","0","0","0","0","40","0","40","5","0","0","40","40","0","0","40","40","40","40","NA","0","5","0","5","0","0","0","0","0","5","5","5","5","5","40","0","0","0","0","02/08/19 22:56:53","Matching Tasks","yes","","OrientationCrossLanguages_2018PSA_PP_1.1.0.osexp","D:/core/Research/OpenSci/PSA/2018/2017_submission_orientation_generalicity/Script","no","chinese-japanese-korean","no","18","no","#0000ff","no","Ok","no","Male","768","legacy","yes","no","40","40","1","5","D:/core/Research/OpenSci/PSA/2018/2017_submission_orientation_generalicity/EXPDATA/raw_data/PP-1.csv","9","legacy","Kafkaesque Koffka","3.2.6","yes","5a7ce671e83246000deafe81","0","0","j","space","NA","j","NA","space","f","NA","space","362","1267","NA","362","NA","681","572","NA","1006","2","legacy","1024","2","48000","-16","EXP","1","odd","NA","19129","1400","1405","4121","19118","19118","65747","NA","30152","90401","27860","20145","29462","90902","90399","19129","30152","90902","91266","NA","88367","NA","20145","29439","20159","27859","20159","20159","20145","NA","29463","28365","28365","28939","NA","NA","91766","NA","19130","NA","5505","Orientation_PSA2018","10","5974","17","yes","1024","1002"
"N","100","V","H","PP_LIST1.csv","screwV.jpg","screwH.jpg","61.1111111111","61.1111111111","352.777777778","352.777777778","#ffffff","yes","legacy","legacy","legacy","0","uniform","1","1","undefined","1","undefined","6","j","0","0","0","0","0","0","0","0","41","0","41","5","0","0","41","41","0","0","41","41","41","41","NA","0","5","0","5","0","0","0","0","0","5","5","5","5","5","41","0","0","0","0","02/08/19 22:56:53","Matching Tasks","yes","","OrientationCrossLanguages_2018PSA_PP_1.1.0.osexp","D:/core/Research/OpenSci/PSA/2018/2017_submission_orientation_generalicity/Script","no","chinese-japanese-korean","no","18","no","#0000ff","no","Ok","no","Male","768","legacy","yes","no","41","41","1","5","D:/core/Research/OpenSci/PSA/2018/2017_submission_orientation_generalicity/EXPDATA/raw_data/PP-1.csv","9","legacy","Kafkaesque Koffka","3.2.6","yes","5a7ce671e83246000deafe81","0","0","j","space","NA","j","NA","space","f","NA","space","376","1267","NA","376","NA","681","572","NA","1006","2","legacy","1024","2","48000","-16","EXP","1","odd","NA","19129","1400","1405","4121","19118","19118","65747","NA","30152","91865","27860","20145","29462","92366","91862","19129","30152","92366","92744","NA","88367","NA","20145","29439","20159","27859","20159","20159","20145","NA","29463","28365","28365","28939","NA","NA","93244","NA","19130","NA","5505","Orientation_PSA2018","11","6350","18","yes","1024","1002"
"N","100","H","V","PP_LIST1.csv","nailH.jpg","nailV.jpg","63.1578947368","63.1578947368","354","354","#ffffff","yes","legacy","legacy","legacy","0","uniform","1","1","undefined","1","undefined","6","j","0","0","0","0","0","0","0","0","42","0","42","5","0","0","42","42","0","0","42","42","42","42","NA","0","5","0","5","0","0","0","0","0","5","5","5","5","5","42","0","0","0","0","02/08/19 22:56:53","Matching Tasks","yes","","OrientationCrossLanguages_2018PSA_PP_1.1.0.osexp","D:/core/Research/OpenSci/PSA/2018/2017_submission_orientation_generalicity/Script","no","chinese-japanese-korean","no","18","no","#0000ff","no","Ok","no","Male","768","legacy","yes","no","42","42","1","5","D:/core/Research/OpenSci/PSA/2018/2017_submission_orientation_generalicity/EXPDATA/raw_data/PP-1.csv","9","legacy","Kafkaesque Koffka","3.2.6","yes","5a7ce671e83246000deafe81","0","0","j","space","NA","j","NA","space","f","NA","space","376","1267","NA","376","NA","681","572","NA","1006","2","legacy","1024","2","48000","-16","EXP","1","odd","NA","19129","1400","1405","4121","19118","19118","65747","NA","30152","93345","27860","20145","29462","93847","93344","19129","30152","93847","94225","NA","88367","NA","20145","29439","20159","27859","20159","20159","20145","NA","29463","28365","28365","28939","NA","NA","94726","NA","19130","NA","5505","Orientation_PSA2018","12","6726","19","yes","1024","1002"
"F","100","F","F","PP_LIST1.csv","tlphon.jpg","knife.jpg","60","60","364.35","364.35","#ffffff","yes","legacy","legacy","legacy","0","uniform","0","0","undefined","1","undefined","6","f","0","0","0","0","0","0","0","0","43","0","43","5","0","0","43","43","0","0","43","43","43","43","NA","0","5","0","5","0","0","0","0","0","5","5","5","5","5","43","0","0","0","0","02/08/19 22:56:53","Matching Tasks","yes","","OrientationCrossLanguages_2018PSA_PP_1.1.0.osexp","D:/core/Research/OpenSci/PSA/2018/2017_submission_orientation_generalicity/Script","no","chinese-japanese-korean","no","18","no","#0000ff","no","Ok","no","Male","768","legacy","yes","no","43","43","1","5","D:/core/Research/OpenSci/PSA/2018/2017_submission_orientation_generalicity/EXPDATA/raw_data/PP-1.csv","9","legacy","Kafkaesque Koffka","3.2.6","yes","5a7ce671e83246000deafe81","0","0","j","space","NA","j","NA","space","f","NA","space","561","1267","NA","561","NA","681","572","NA","1006","2","legacy","1024","2","48000","-16","EXP","1","odd","NA","19129","1400","1405","4121","19118","19118","65747","NA","30152","94823","27860","20145","29462","95324","94822","19129","30152","95324","94225","NA","95887","NA","20145","29439","20159","27859","20159","20159","20145","NA","29463","28365","28365","28939","NA","NA","96387","NA","19130","NA","5505","Orientation_PSA2018","12","7287","20","yes","1024","1002"
"F","100","F","F","PP_LIST1.csv","pumpkin.jpg","trmpet.jpg","57.1428571429","57.1428571429","356.761904762","356.761904762","#ffffff","yes","legacy","legacy","legacy","0","uniform","0","0","undefined","1","undefined","6","f","0","0","0","0","0","0","0","0","44","0","44","5","0","0","44","44","0","0","44","44","44","44","NA","0","5","0","5","0","0","0","0","0","5","5","5","5","5","44","0","0","0","0","02/08/19 22:56:53","Matching Tasks","yes","","OrientationCrossLanguages_2018PSA_PP_1.1.0.osexp","D:/core/Research/OpenSci/PSA/2018/2017_submission_orientation_generalicity/Script","no","chinese-japanese-korean","no","18","no","#0000ff","no","Ok","no","Male","768","legacy","yes","no","44","44","1","5","D:/core/Research/OpenSci/PSA/2018/2017_submission_orientation_generalicity/EXPDATA/raw_data/PP-1.csv","9","legacy","Kafkaesque Koffka","3.2.6","yes","5a7ce671e83246000deafe81","0","0","j","space","NA","j","NA","space","f","NA","space","205","1267","NA","205","NA","681","572","NA","1006","2","legacy","1024","2","48000","-16","EXP","1","odd","NA","19129","1400","1405","4121","19118","19118","65747","NA","30152","96500","27860","20145","29462","97001","96499","19129","30152","97001","94225","NA","97207","NA","20145","29439","20159","27859","20159","20159","20145","NA","29463","28365","28365","28939","NA","NA","97707","NA","19130","NA","5505","Orientation_PSA2018","12","7492","21","yes","1024","1002"
"Y","100","H","H","PP_LIST1.csv","bookH.jpg","bookH.jpg","59.0909090909","59.0909090909","366.954545455","366.954545455","#ffffff","yes","legacy","legacy","legacy","0","uniform","1","1","undefined","1","undefined","6","j","0","0","0","0","0","0","0","0","45","0","45","5","0","0","45","45","0","0","45","45","45","45","NA","0","5","0","5","0","0","0","0","0","5","5","5","5","5","45","0","0","0","0","02/08/19 22:56:53","Matching Tasks","yes","","OrientationCrossLanguages_2018PSA_PP_1.1.0.osexp","D:/core/Research/OpenSci/PSA/2018/2017_submission_orientation_generalicity/Script","no","chinese-japanese-korean","no","18","no","#0000ff","no","Ok","no","Male","768","legacy","yes","no","45","45","1","5","D:/core/Research/OpenSci/PSA/2018/2017_submission_orientation_generalicity/EXPDATA/raw_data/PP-1.csv","9","legacy","Kafkaesque Koffka","3.2.6","yes","5a7ce671e83246000deafe81","0","0","j","space","NA","j","NA","space","f","NA","space","581","1267","NA","581","NA","681","572","NA","1006","2","legacy","1024","2","48000","-16","EXP","1","odd","NA","19129","1400","1405","4121","19118","19118","65747","NA","30152","97794","27860","20145","29462","98295","97793","19129","30152","98295","98878","NA","97207","NA","20145","29439","20159","27859","20159","20159","20145","NA","29463","28365","28365","28939","NA","NA","99378","NA","19130","NA","5505","Orientation_PSA2018","13","8073","22","yes","1024","1002"
"Y","100","H","H","PP_LIST1.csv","batH.jpg","batH.jpg","60.8695652174","60.8695652174","367.565217391","367.565217391","#ffffff","yes","legacy","legacy","legacy","0","uniform","1","1","undefined","1","undefined","6","j","0","0","0","0","0","0","0","0","46","0","46","5","0","0","46","46","0","0","46","46","46","46","NA","0","5","0","5","0","0","0","0","0","5","5","5","5","5","46","0","0","0","0","02/08/19 22:56:53","Matching Tasks","yes","","OrientationCrossLanguages_2018PSA_PP_1.1.0.osexp","D:/core/Research/OpenSci/PSA/2018/2017_submission_orientation_generalicity/Script","no","chinese-japanese-korean","no","18","no","#0000ff","no","Ok","no","Male","768","legacy","yes","no","46","46","1","5","D:/core/Research/OpenSci/PSA/2018/2017_submission_orientation_generalicity/EXPDATA/raw_data/PP-1.csv","9","legacy","Kafkaesque Koffka","3.2.6","yes","5a7ce671e83246000deafe81","0","0","j","space","NA","j","NA","space","f","NA","space","381","1267","NA","381","NA","681","572","NA","1006","2","legacy","1024","2","48000","-16","EXP","1","odd","NA","19129","1400","1405","4121","19118","19118","65747","NA","30152","99506","27860","20145","29462","100007","99504","19129","30152","100007","100390","NA","97207","NA","20145","29439","20159","27859","20159","20159","20145","NA","29463","28365","28365","28939","NA","NA","100890","NA","19130","NA","5505","Orientation_PSA2018","14","8454","23","yes","1024","1002"
"F","100","F","F","PP_LIST1.csv","sutcse.jpg","pumpkin.jpg","58.3333333333","58.3333333333","371.208333333","371.208333333","#ffffff","yes","legacy","legacy","legacy","0","uniform","0","0","undefined","1","undefined","6","f","0","0","0","0","0","0","0","0","47","0","47","5","0","0","47","47","0","0","47","47","47","47","NA","0","5","0","5","0","0","0","0","0","5","5","5","5","5","47","0","0","0","0","02/08/19 22:56:53","Matching Tasks","yes","","OrientationCrossLanguages_2018PSA_PP_1.1.0.osexp","D:/core/Research/OpenSci/PSA/2018/2017_submission_orientation_generalicity/Script","no","chinese-japanese-korean","no","18","no","#0000ff","no","Ok","no","Male","768","legacy","yes","no","47","47","1","5","D:/core/Research/OpenSci/PSA/2018/2017_submission_orientation_generalicity/EXPDATA/raw_data/PP-1.csv","9","legacy","Kafkaesque Koffka","3.2.6","yes","5a7ce671e83246000deafe81","0","0","j","space","NA","j","NA","space","f","NA","space","455","1267","NA","455","NA","681","572","NA","1006","2","legacy","1024","2","48000","-16","EXP","1","odd","NA","19129","1400","1405","4121","19118","19118","65747","NA","30152","100985","27860","20145","29462","101486","100984","19129","30152","101486","100390","NA","101943","NA","20145","29439","20159","27859","20159","20159","20145","NA","29463","28365","28365","28939","NA","NA","102443","NA","19130","NA","5505","Orientation_PSA2018","14","8909","24","yes","1024","1002"
