"Identical","LAB_SEED","Orientation1","Orientation2","PPList","Picture1","Picture2","acc","accuracy","average_response_time","avg_rt","background","bidi","canvas_backend","clock_backend","color_backend","compensation","coordinates","correct","correct_Pictures_response","correct_Start_E","correct_Target_response_Prac","correct_Welcome_PP_E","correct_count","correct_response","count_Check_This","count_Disable_Mouse","count_EXP","count_LAB_SEED","count_Language_Selection","count_List_Select","count_List_Selection","count_Pictures_Break","count_Pictures_End","count_Pictures_Exp","count_Pictures_Fixation","count_Pictures_Fixation_Prac","count_Pictures_Prac","count_Pictures_Start","count_Pictures_Target","count_Pictures_Trial","count_Pictures_Welcome","count_Pictures_loop","count_Pictures_response","count_Pictures_response_correct","count_Pictures_response_noans","count_Pictures_response_wrong","count_Post","count_Prac","count_Prac_Count_1","count_Prac_Reset","count_Prac_Trial","count_Prac_loop","count_Prac_seq","count_Prac_setup","count_Start_C","count_Start_E","count_Target_Prac","count_Target_response_Prac","count_Target_response_correct_Prac","count_Target_response_noans_Prac_1","count_Target_response_wrong_Prac_1","count_Trial_logger","count_Welcome_PP_C","count_Welcome_PP_E","count_postdata_C","count_postdata_E","datetime","description","disable_garbage_collection","empty_column","experiment_file","experiment_path","font_bold","font_family","font_italic","font_size","font_underline","foreground","form_clicks","form_response","fullscreen","gender","height","keyboard_backend","language1","language2","live_row","live_row_Pictures_loop","live_row_Prac","live_row_Prac_loop","logfile","month","mouse_backend","opensesame_codename","opensesame_version","osf_always_upload_experiment","osf_id","repeat_cycle","reset_loop","response","response_Pictures_Break","response_Pictures_End","response_Pictures_response","response_Start_C","response_Start_E","response_Target_response_Prac","response_Welcome_PP_C","response_Welcome_PP_E","response_time","response_time_Pictures_Break","response_time_Pictures_End","response_time_Pictures_response","response_time_Start_C","response_time_Start_E","response_time_Target_response_Prac","response_time_Welcome_PP_C","response_time_Welcome_PP_E","round_decimals","sampler_backend","sound_buf_size","sound_channels","sound_freq","sound_sample_size","start","subject_nr","subject_parity","time_Check_This","time_Disable_Mouse","time_EXP","time_LAB_SEED","time_Language_Selection","time_List_Select","time_List_Selection","time_Pictures_Break","time_Pictures_End","time_Pictures_Exp","time_Pictures_Fixation","time_Pictures_Fixation_Prac","time_Pictures_Prac","time_Pictures_Start","time_Pictures_Target","time_Pictures_Trial","time_Pictures_Welcome","time_Pictures_loop","time_Pictures_response","time_Pictures_response_correct","time_Pictures_response_noans","time_Pictures_response_wrong","time_Post","time_Prac","time_Prac_Count_1","time_Prac_Reset","time_Prac_Trial","time_Prac_loop","time_Prac_seq","time_Prac_setup","time_Start_C","time_Start_E","time_Target_Prac","time_Target_response_Prac","time_Target_response_correct_Prac","time_Target_response_noans_Prac_1","time_Target_response_wrong_Prac_1","time_Trial_logger","time_Welcome_PP_C","time_Welcome_PP_E","time_postdata_C","time_postdata_E","title","total_correct","total_response_time","total_responses","uniform_coordinates","width","year"
"F","100","F","F","PP_LIST2.csv","watch.jpg","skirt.jpg","100","100","580.142857143","580.142857143","#ffffff","yes","legacy","legacy","legacy","0","uniform","1","1","undefined","1","undefined","6","f","0","0","0","0","0","0","0","NA","0","0","0","5","0","0","0","0","0","0","0","0","0","0","NA","0","5","0","5","0","0","0","0","0","5","5","5","5","5","0","0","0","0","0","02/08/19 23:00:56","Matching Tasks","yes","","OrientationCrossLanguages_2018PSA_PP_1.1.0.osexp","D:/core/Research/OpenSci/PSA/2018/2017_submission_orientation_generalicity/Script","no","chinese-japanese-korean","no","18","no","#0000ff","no","Ok","no","Female","768","legacy","yes","no","0","0","1","5","D:/core/Research/OpenSci/PSA/2018/2017_submission_orientation_generalicity/EXPDATA/raw_data/PP/subject-2.csv","11","legacy","Kafkaesque Koffka","3.2.6","yes","5a7ce671e83246000deafe81","0","0","f","NA","NA","f","NA","space","f","NA","space","756","NA","NA","756","NA","802","606","NA","796","2","legacy","1024","2","48000","-16","EXP","2","even","NA","16608","1255","1259","4010","16599","16599","NA","NA","28085","28162","25629","17415","27272","28666","28161","16609","28086","28667","29425","NA","NA","NA","17415","27243","17428","25628","17428","17427","17415","NA","27274","26135","26135","26743","NA","NA","29925","NA","16610","NA","5385","Orientation_PSA2018","7","4061","7","yes","1024","2002"
"F","100","F","F","PP_LIST2.csv","wrench.jpg","piano.jpg","87.5","87.5","563.125","563.125","#ffffff","yes","legacy","legacy","legacy","0","uniform","0","0","undefined","1","undefined","6","f","0","0","0","0","0","0","0","NA","1","0","1","5","0","0","1","1","0","0","1","1","1","1","NA","0","5","0","5","0","0","0","0","0","5","5","5","5","5","1","0","0","0","0","02/08/19 23:00:56","Matching Tasks","yes","","OrientationCrossLanguages_2018PSA_PP_1.1.0.osexp","D:/core/Research/OpenSci/PSA/2018/2017_submission_orientation_generalicity/Script","no","chinese-japanese-korean","no","18","no","#0000ff","no","Ok","no","Female","768","legacy","yes","no","1","1","1","5","D:/core/Research/OpenSci/PSA/2018/2017_submission_orientation_generalicity/EXPDATA/raw_data/PP/subject-2.csv","11","legacy","Kafkaesque Koffka","3.2.6","yes","5a7ce671e83246000deafe81","0","0","j","NA","NA","j","NA","space","f","NA","space","444","NA","NA","444","NA","802","606","NA","796","2","legacy","1024","2","48000","-16","EXP","2","even","NA","16608","1255","1259","4010","16599","16599","NA","NA","28085","30084","25629","17415","27272","30586","30083","16609","28086","30586","29425","NA","31032","NA","17415","27243","17428","25628","17428","17427","17415","NA","27274","26135","26135","26743","NA","NA","31532","NA","16610","NA","5385","Orientation_PSA2018","7","4505","8","yes","1024","2002"
"N","100","H","V","PP_LIST2.csv","clothespinH.jpg","clothespinV.jpg","88.8888888889","88.8888888889","545.888888889","545.888888889","#ffffff","yes","legacy","legacy","legacy","0","uniform","1","1","undefined","1","undefined","6","j","0","0","0","0","0","0","0","NA","2","0","2","5","0","0","2","2","0","0","2","2","2","2","NA","0","5","0","5","0","0","0","0","0","5","5","5","5","5","2","0","0","0","0","02/08/19 23:00:56","Matching Tasks","yes","","OrientationCrossLanguages_2018PSA_PP_1.1.0.osexp","D:/core/Research/OpenSci/PSA/2018/2017_submission_orientation_generalicity/Script","no","chinese-japanese-korean","no","18","no","#0000ff","no","Ok","no","Female","768","legacy","yes","no","2","2","1","5","D:/core/Research/OpenSci/PSA/2018/2017_submission_orientation_generalicity/EXPDATA/raw_data/PP/subject-2.csv","11","legacy","Kafkaesque Koffka","3.2.6","yes","5a7ce671e83246000deafe81","0","0","j","NA","NA","j","NA","space","f","NA","space","408","NA","NA","408","NA","802","606","NA","796","2","legacy","1024","2","48000","-16","EXP","2","even","NA","16608","1255","1259","4010","16599","16599","NA","NA","28085","31635","25629","17415","27272","32136","31633","16609","28086","32136","32546","NA","31032","NA","17415","27243","17428","25628","17428","17427","17415","NA","27274","26135","26135","26743","NA","NA","33046","NA","16610","NA","5385","Orientation_PSA2018","8","4913","9","yes","1024","2002"
"N","100","H","V","PP_LIST2.csv","crayonH.jpg","crayonV.jpg","90","90","527.5","527.5","#ffffff","yes","legacy","legacy","legacy","0","uniform","1","1","undefined","1","undefined","6","j","0","0","0","0","0","0","0","NA","3","0","3","5","0","0","3","3","0","0","3","3","3","3","NA","0","5","0","5","0","0","0","0","0","5","5","5","5","5","3","0","0","0","0","02/08/19 23:00:56","Matching Tasks","yes","","OrientationCrossLanguages_2018PSA_PP_1.1.0.osexp","D:/core/Research/OpenSci/PSA/2018/2017_submission_orientation_generalicity/Script","no","chinese-japanese-korean","no","18","no","#0000ff","no","Ok","no","Female","768","legacy","yes","no","3","3","1","5","D:/core/Research/OpenSci/PSA/2018/2017_submission_orientation_generalicity/EXPDATA/raw_data/PP/subject-2.csv","11","legacy","Kafkaesque Koffka","3.2.6","yes","5a7ce671e83246000deafe81","0","0","j","NA","NA","j","NA","space","f","NA","space","362","NA","NA","362","NA","802","606","NA","796","2","legacy","1024","2","48000","-16","EXP","2","even","NA","16608","1255","1259","4010","16599","16599","NA","NA","28085","33176","25629","17415","27272","33682","33175","16609","28086","33682","34046","NA","31032","NA","17415","27243","17428","25628","17428","17427","17415","NA","27274","26135","26135","26743","NA","NA","34546","NA","16610","NA","5385","Orientation_PSA2018","9","5275","10","yes","1024","2002"
"F","100","F","F","PP_LIST2.csv","tiger.jpg","wndmil.jpg","81.8181818182","81.8181818182","503.181818182","503.181818182","#ffffff","yes","legacy","legacy","legacy","0","uniform","0","0","undefined","1","undefined","6","f","0","0","0","0","0","0","0","NA","4","0","4","5","0","0","4","4","0","0","4","4","4","4","NA","0","5","0","5","0","0","0","0","0","5","5","5","5","5","4","0","0","0","0","02/08/19 23:00:56","Matching Tasks","yes","","OrientationCrossLanguages_2018PSA_PP_1.1.0.osexp","D:/core/Research/OpenSci/PSA/2018/2017_submission_orientation_generalicity/Script","no","chinese-japanese-korean","no","18","no","#0000ff","no","Ok","no","Female","768","legacy","yes","no","4","4","1","5","D:/core/Research/OpenSci/PSA/2018/2017_submission_orientation_generalicity/EXPDATA/raw_data/PP/subject-2.csv","11","legacy","Kafkaesque Koffka","3.2.6","yes","5a7ce671e83246000deafe81","0","0","j","NA","NA","j","NA","space","f","NA","space","260","NA","NA","260","NA","802","606","NA","796","2","legacy","1024","2","48000","-16","EXP","2","even","NA","16608","1255","1259","4010","16599","16599","NA","NA","28085","34647","25629","17415","27272","35149","34645","16609","28086","35149","34046","NA","35410","NA","17415","27243","17428","25628","17428","17427","17415","NA","27274","26135","26135","26743","NA","NA","35910","NA","16610","NA","5385","Orientation_PSA2018","9","5535","11","yes","1024","2002"
"F","100","F","F","PP_LIST2.csv","spider.jpg","couch.jpg","75","75","481.083333333","481.083333333","#ffffff","yes","legacy","legacy","legacy","0","uniform","0","0","undefined","1","undefined","6","f","0","0","0","0","0","0","0","NA","5","0","5","5","0","0","5","5","0","0","5","5","5","5","NA","0","5","0","5","0","0","0","0","0","5","5","5","5","5","5","0","0","0","0","02/08/19 23:00:56","Matching Tasks","yes","","OrientationCrossLanguages_2018PSA_PP_1.1.0.osexp","D:/core/Research/OpenSci/PSA/2018/2017_submission_orientation_generalicity/Script","no","chinese-japanese-korean","no","18","no","#0000ff","no","Ok","no","Female","768","legacy","yes","no","5","5","1","5","D:/core/Research/OpenSci/PSA/2018/2017_submission_orientation_generalicity/EXPDATA/raw_data/PP/subject-2.csv","11","legacy","Kafkaesque Koffka","3.2.6","yes","5a7ce671e83246000deafe81","0","0","j","NA","NA","j","NA","space","f","NA","space","238","NA","NA","238","NA","802","606","NA","796","2","legacy","1024","2","48000","-16","EXP","2","even","NA","16608","1255","1259","4010","16599","16599","NA","NA","28085","36005","25629","17415","27272","36509","36004","16609","28086","36509","34046","NA","36748","NA","17415","27243","17428","25628","17428","17427","17415","NA","27274","26135","26135","26743","NA","NA","37248","NA","16610","NA","5385","Orientation_PSA2018","9","5773","12","yes","1024","2002"
"Y","100","V","V","PP_LIST2.csv","bowlV.jpg","bowlV.jpg","76.9230769231","76.9230769231","459.076923077","459.076923077","#ffffff","yes","legacy","legacy","legacy","0","uniform","1","1","undefined","1","undefined","6","j","0","0","0","0","0","0","0","NA","6","0","6","5","0","0","6","6","0","0","6","6","6","6","NA","0","5","0","5","0","0","0","0","0","5","5","5","5","5","6","0","0","0","0","02/08/19 23:00:56","Matching Tasks","yes","","OrientationCrossLanguages_2018PSA_PP_1.1.0.osexp","D:/core/Research/OpenSci/PSA/2018/2017_submission_orientation_generalicity/Script","no","chinese-japanese-korean","no","18","no","#0000ff","no","Ok","no","Female","768","legacy","yes","no","6","6","1","5","D:/core/Research/OpenSci/PSA/2018/2017_submission_orientation_generalicity/EXPDATA/raw_data/PP/subject-2.csv","11","legacy","Kafkaesque Koffka","3.2.6","yes","5a7ce671e83246000deafe81","0","0","j","NA","NA","j","NA","space","f","NA","space","195","NA","NA","195","NA","802","606","NA","796","2","legacy","1024","2","48000","-16","EXP","2","even","NA","16608","1255","1259","4010","16599","16599","NA","NA","28085","37380","25629","17415","27272","37885","37379","16609","28086","37885","38082","NA","36748","NA","17415","27243","17428","25628","17428","17427","17415","NA","27274","26135","26135","26743","NA","NA","38582","NA","16610","NA","5385","Orientation_PSA2018","10","5968","13","yes","1024","2002"
"N","100","V","H","PP_LIST2.csv","glassV.jpg","glassH.jpg","78.5714285714","78.5714285714","445.142857143","445.142857143","#ffffff","yes","legacy","legacy","legacy","0","uniform","1","1","undefined","1","undefined","6","j","0","0","0","0","0","0","0","NA","7","0","7","5","0","0","7","7","0","0","7","7","7","7","NA","0","5","0","5","0","0","0","0","0","5","5","5","5","5","7","0","0","0","0","02/08/19 23:00:56","Matching Tasks","yes","","OrientationCrossLanguages_2018PSA_PP_1.1.0.osexp","D:/core/Research/OpenSci/PSA/2018/2017_submission_orientation_generalicity/Script","no","chinese-japanese-korean","no","18","no","#0000ff","no","Ok","no","Female","768","legacy","yes","no","7","7","1","5","D:/core/Research/OpenSci/PSA/2018/2017_submission_orientation_generalicity/EXPDATA/raw_data/PP/subject-2.csv","11","legacy","Kafkaesque Koffka","3.2.6","yes","5a7ce671e83246000deafe81","0","0","j","NA","NA","j","NA","space","f","NA","space","264","NA","NA","264","NA","802","606","NA","796","2","legacy","1024","2","48000","-16","EXP","2","even","NA","16608","1255","1259","4010","16599","16599","NA","NA","28085","38688","25629","17415","27272","39189","38687","16609","28086","39189","39455","NA","36748","NA","17415","27243","17428","25628","17428","17427","17415","NA","27274","26135","26135","26743","NA","NA","39955","NA","16610","NA","5385","Orientation_PSA2018","11","6232","14","yes","1024","2002"
"F","100","F","F","PP_LIST2.csv","skirt.jpg","tlphon.jpg","73.3333333333","73.3333333333","427.733333333","427.733333333","#ffffff","yes","legacy","legacy","legacy","0","uniform","0","0","undefined","1","undefined","6","f","0","0","0","0","0","0","0","NA","8","0","8","5","0","0","8","8","0","0","8","8","8","8","NA","0","5","0","5","0","0","0","0","0","5","5","5","5","5","8","0","0","0","0","02/08/19 23:00:56","Matching Tasks","yes","","OrientationCrossLanguages_2018PSA_PP_1.1.0.osexp","D:/core/Research/OpenSci/PSA/2018/2017_submission_orientation_generalicity/Script","no","chinese-japanese-korean","no","18","no","#0000ff","no","Ok","no","Female","768","legacy","yes","no","8","8","1","5","D:/core/Research/OpenSci/PSA/2018/2017_submission_orientation_generalicity/EXPDATA/raw_data/PP/subject-2.csv","11","legacy","Kafkaesque Koffka","3.2.6","yes","5a7ce671e83246000deafe81","0","0","j","NA","NA","j","NA","space","f","NA","space","184","NA","NA","184","NA","802","606","NA","796","2","legacy","1024","2","48000","-16","EXP","2","even","NA","16608","1255","1259","4010","16599","16599","NA","NA","28085","40050","25629","17415","27272","40551","40048","16609","28086","40551","39455","NA","40737","NA","17415","27243","17428","25628","17428","17427","17415","NA","27274","26135","26135","26743","NA","NA","41237","NA","16610","NA","5385","Orientation_PSA2018","11","6416","15","yes","1024","2002"
"N","100","V","H","PP_LIST2.csv","ironV.jpg","ironH.jpg","75","75","415","415","#ffffff","yes","legacy","legacy","legacy","0","uniform","1","1","undefined","1","undefined","6","j","0","0","0","0","0","0","0","NA","9","0","9","5","0","0","9","9","0","0","9","9","9","9","NA","0","5","0","5","0","0","0","0","0","5","5","5","5","5","9","0","0","0","0","02/08/19 23:00:56","Matching Tasks","yes","","OrientationCrossLanguages_2018PSA_PP_1.1.0.osexp","D:/core/Research/OpenSci/PSA/2018/2017_submission_orientation_generalicity/Script","no","chinese-japanese-korean","no","18","no","#0000ff","no","Ok","no","Female","768","legacy","yes","no","9","9","1","5","D:/core/Research/OpenSci/PSA/2018/2017_submission_orientation_generalicity/EXPDATA/raw_data/PP/subject-2.csv","11","legacy","Kafkaesque Koffka","3.2.6","yes","5a7ce671e83246000deafe81","0","0","j","NA","NA","j","NA","space","f","NA","space","224","NA","NA","224","NA","802","606","NA","796","2","legacy","1024","2","48000","-16","EXP","2","even","NA","16608","1255","1259","4010","16599","16599","NA","NA","28085","41333","25629","17415","27272","41838","41332","16609","28086","41838","42064","NA","40737","NA","17415","27243","17428","25628","17428","17427","17415","NA","27274","26135","26135","26743","NA","NA","42564","NA","16610","NA","5385","Orientation_PSA2018","12","6640","16","yes","1024","2002"
"F","100","F","F","PP_LIST2.csv","mitten.jpg","needle.jpg","70.5882352941","70.5882352941","406.647058824","406.647058824","#ffffff","yes","legacy","legacy","legacy","0","uniform","0","0","undefined","1","undefined","6","f","0","0","0","0","0","0","0","NA","10","0","10","5","0","0","10","10","0","0","10","10","10","10","NA","0","5","0","5","0","0","0","0","0","5","5","5","5","5","10","0","0","0","0","02/08/19 23:00:56","Matching Tasks","yes","","OrientationCrossLanguages_2018PSA_PP_1.1.0.osexp","D:/core/Research/OpenSci/PSA/2018/2017_submission_orientation_generalicity/Script","no","chinese-japanese-korean","no","18","no","#0000ff","no","Ok","no","Female","768","legacy","yes","no","10","10","1","5","D:/core/Research/OpenSci/PSA/2018/2017_submission_orientation_generalicity/EXPDATA/raw_data/PP/subject-2.csv","11","legacy","Kafkaesque Koffka","3.2.6","yes","5a7ce671e83246000deafe81","0","0","j","NA","NA","j","NA","space","f","NA","space","273","NA","NA","273","NA","802","606","NA","796","2","legacy","1024","2","48000","-16","EXP","2","even","NA","16608","1255","1259","4010","16599","16599","NA","NA","28085","42659","25629","17415","27272","43164","42657","16609","28086","43164","42064","NA","43439","NA","17415","27243","17428","25628","17428","17427","17415","NA","27274","26135","26135","26743","NA","NA","43939","NA","16610","NA","5385","Orientation_PSA2018","12","6913","17","yes","1024","2002"
"F","100","F","F","PP_LIST2.csv","stove.jpg","ftball.jpg","66.6666666667","66.6666666667","397.333333333","397.333333333","#ffffff","yes","legacy","legacy","legacy","0","uniform","0","0","undefined","1","undefined","6","f","0","0","0","0","0","0","0","NA","11","0","11","5","0","0","11","11","0","0","11","11","11","11","NA","0","5","0","5","0","0","0","0","0","5","5","5","5","5","11","0","0","0","0","02/08/19 23:00:56","Matching Tasks","yes","","OrientationCrossLanguages_2018PSA_PP_1.1.0.osexp","D:/core/Research/OpenSci/PSA/2018/2017_submission_orientation_generalicity/Script","no","chinese-japanese-korean","no","18","no","#0000ff","no","Ok","no","Female","768","legacy","yes","no","11","11","1","5","D:/core/Research/OpenSci/PSA/2018/2017_submission_orientation_generalicity/EXPDATA/raw_data/PP/subject-2.csv","11","legacy","Kafkaesque Koffka","3.2.6","yes","5a7ce671e83246000deafe81","0","0","j","NA","NA","j","NA","space","f","NA","space","239","NA","NA","239","NA","802","606","NA","796","2","legacy","1024","2","48000","-16","EXP","2","even","NA","16608","1255","1259","4010","16599","16599","NA","NA","28085","44039","25629","17415","27272","44542","44037","16609","28086","44542","42064","NA","44783","NA","17415","27243","17428","25628","17428","17427","17415","NA","27274","26135","26135","26743","NA","NA","45283","NA","16610","NA","5385","Orientation_PSA2018","12","7152","18","yes","1024","2002"
"F","100","F","F","PP_LIST2.csv","trmpet.jpg","tapedispenser.jpg","63.1578947368","63.1578947368","391.157894737","391.157894737","#ffffff","yes","legacy","legacy","legacy","0","uniform","0","0","undefined","1","undefined","6","f","0","0","0","0","0","0","0","NA","12","0","12","5","0","0","12","12","0","0","12","12","12","12","NA","0","5","0","5","0","0","0","0","0","5","5","5","5","5","12","0","0","0","0","02/08/19 23:00:56","Matching Tasks","yes","","OrientationCrossLanguages_2018PSA_PP_1.1.0.osexp","D:/core/Research/OpenSci/PSA/2018/2017_submission_orientation_generalicity/Script","no","chinese-japanese-korean","no","18","no","#0000ff","no","Ok","no","Female","768","legacy","yes","no","12","12","1","5","D:/core/Research/OpenSci/PSA/2018/2017_submission_orientation_generalicity/EXPDATA/raw_data/PP/subject-2.csv","11","legacy","Kafkaesque Koffka","3.2.6","yes","5a7ce671e83246000deafe81","0","0","j","NA","NA","j","NA","space","f","NA","space","280","NA","NA","280","NA","802","606","NA","796","2","legacy","1024","2","48000","-16","EXP","2","even","NA","16608","1255","1259","4010","16599","16599","NA","NA","28085","45378","25629","17415","27272","45883","45377","16609","28086","45883","42064","NA","46164","NA","17415","27243","17428","25628","17428","17427","17415","NA","27274","26135","26135","26743","NA","NA","46664","NA","16610","NA","5385","Orientation_PSA2018","12","7432","19","yes","1024","2002"
"N","100","H","V","PP_LIST2.csv","caterpillarH.jpg","caterpillarV.jpg","65","65","382.3","382.3","#ffffff","yes","legacy","legacy","legacy","0","uniform","1","1","undefined","1","undefined","6","j","0","0","0","0","0","0","0","NA","13","0","13","5","0","0","13","13","0","0","13","13","13","13","NA","0","5","0","5","0","0","0","0","0","5","5","5","5","5","13","0","0","0","0","02/08/19 23:00:56","Matching Tasks","yes","","OrientationCrossLanguages_2018PSA_PP_1.1.0.osexp","D:/core/Research/OpenSci/PSA/2018/2017_submission_orientation_generalicity/Script","no","chinese-japanese-korean","no","18","no","#0000ff","no","Ok","no","Female","768","legacy","yes","no","13","13","1","5","D:/core/Research/OpenSci/PSA/2018/2017_submission_orientation_generalicity/EXPDATA/raw_data/PP/subject-2.csv","11","legacy","Kafkaesque Koffka","3.2.6","yes","5a7ce671e83246000deafe81","0","0","j","NA","NA","j","NA","space","f","NA","space","214","NA","NA","214","NA","802","606","NA","796","2","legacy","1024","2","48000","-16","EXP","2","even","NA","16608","1255","1259","4010","16599","16599","NA","NA","28085","46784","25629","17415","27272","47285","46783","16609","28086","47285","47501","NA","46164","NA","17415","27243","17428","25628","17428","17427","17415","NA","27274","26135","26135","26743","NA","NA","48001","NA","16610","NA","5385","Orientation_PSA2018","13","7646","20","yes","1024","2002"
"F","100","F","F","PP_LIST2.csv","nut.jpg","watch.jpg","61.9047619048","61.9047619048","376.476190476","376.476190476","#ffffff","yes","legacy","legacy","legacy","0","uniform","0","0","undefined","1","undefined","6","f","0","0","0","0","0","0","0","NA","14","0","14","5","0","0","14","14","0","0","14","14","14","14","NA","0","5","0","5","0","0","0","0","0","5","5","5","5","5","14","0","0","0","0","02/08/19 23:00:56","Matching Tasks","yes","","OrientationCrossLanguages_2018PSA_PP_1.1.0.osexp","D:/core/Research/OpenSci/PSA/2018/2017_submission_orientation_generalicity/Script","no","chinese-japanese-korean","no","18","no","#0000ff","no","Ok","no","Female","768","legacy","yes","no","14","14","1","5","D:/core/Research/OpenSci/PSA/2018/2017_submission_orientation_generalicity/EXPDATA/raw_data/PP/subject-2.csv","11","legacy","Kafkaesque Koffka","3.2.6","yes","5a7ce671e83246000deafe81","0","0","j","NA","NA","j","NA","space","f","NA","space","260","NA","NA","260","NA","802","606","NA","796","2","legacy","1024","2","48000","-16","EXP","2","even","NA","16608","1255","1259","4010","16599","16599","NA","NA","28085","48088","25629","17415","27272","48593","48086","16609","28086","48593","47501","NA","48855","NA","17415","27243","17428","25628","17428","17427","17415","NA","27274","26135","26135","26743","NA","NA","49355","NA","16610","NA","5385","Orientation_PSA2018","13","7906","21","yes","1024","2002"
"Y","100","V","V","PP_LIST2.csv","bottleV.jpg","bottleV.jpg","63.6363636364","63.6363636364","372.863636364","372.863636364","#ffffff","yes","legacy","legacy","legacy","0","uniform","1","1","undefined","1","undefined","6","j","0","0","0","0","0","0","0","NA","15","0","15","5","0","0","15","15","0","0","15","15","15","15","NA","0","5","0","5","0","0","0","0","0","5","5","5","5","5","15","0","0","0","0","02/08/19 23:00:56","Matching Tasks","yes","","OrientationCrossLanguages_2018PSA_PP_1.1.0.osexp","D:/core/Research/OpenSci/PSA/2018/2017_submission_orientation_generalicity/Script","no","chinese-japanese-korean","no","18","no","#0000ff","no","Ok","no","Female","768","legacy","yes","no","15","15","1","5","D:/core/Research/OpenSci/PSA/2018/2017_submission_orientation_generalicity/EXPDATA/raw_data/PP/subject-2.csv","11","legacy","Kafkaesque Koffka","3.2.6","yes","5a7ce671e83246000deafe81","0","0","j","NA","NA","j","NA","space","f","NA","space","297","NA","NA","297","NA","802","606","NA","796","2","legacy","1024","2","48000","-16","EXP","2","even","NA","16608","1255","1259","4010","16599","16599","NA","NA","28085","49452","25629","17415","27272","49953","49451","16609","28086","49953","50251","NA","48855","NA","17415","27243","17428","25628","17428","17427","17415","NA","27274","26135","26135","26743","NA","NA","50751","NA","16610","NA","5385","Orientation_PSA2018","14","8203","22","yes","1024","2002"
"F","100","F","F","PP_LIST2.csv","couch.jpg","spider.jpg","60.8695652174","60.8695652174","363.043478261","363.043478261","#ffffff","yes","legacy","legacy","legacy","0","uniform","0","0","undefined","1","undefined","6","f","0","0","0","0","0","0","0","NA","16","0","16","5","0","0","16","16","0","0","16","16","16","16","NA","0","5","0","5","0","0","0","0","0","5","5","5","5","5","16","0","0","0","0","02/08/19 23:00:56","Matching Tasks","yes","","OrientationCrossLanguages_2018PSA_PP_1.1.0.osexp","D:/core/Research/OpenSci/PSA/2018/2017_submission_orientation_generalicity/Script","no","chinese-japanese-korean","no","18","no","#0000ff","no","Ok","no","Female","768","legacy","yes","no","16","16","1","5","D:/core/Research/OpenSci/PSA/2018/2017_submission_orientation_generalicity/EXPDATA/raw_data/PP/subject-2.csv","11","legacy","Kafkaesque Koffka","3.2.6","yes","5a7ce671e83246000deafe81","0","0","j","NA","NA","j","NA","space","f","NA","space","147","NA","NA","147","NA","802","606","NA","796","2","legacy","1024","2","48000","-16","EXP","2","even","NA","16608","1255","1259","4010","16599","16599","NA","NA","28085","50850","25629","17415","27272","51351","50849","16609","28086","51352","50251","NA","51501","NA","17415","27243","17428","25628","17428","17427","17415","NA","27274","26135","26135","26743","NA","NA","52001","NA","16610","NA","5385","Orientation_PSA2018","14","8350","23","yes","1024","2002"
"N","100","V","H","PP_LIST2.csv","guitarV.jpg","guitarH.jpg","62.5","62.5","363.791666667","363.791666667","#ffffff","yes","legacy","legacy","legacy","0","uniform","1","1","undefined","1","undefined","6","j","0","0","0","0","0","0","0","NA","17","0","17","5","0","0","17","17","0","0","17","17","17","17","NA","0","5","0","5","0","0","0","0","0","5","5","5","5","5","17","0","0","0","0","02/08/19 23:00:56","Matching Tasks","yes","","OrientationCrossLanguages_2018PSA_PP_1.1.0.osexp","D:/core/Research/OpenSci/PSA/2018/2017_submission_orientation_generalicity/Script","no","chinese-japanese-korean","no","18","no","#0000ff","no","Ok","no","Female","768","legacy","yes","no","17","17","1","5","D:/core/Research/OpenSci/PSA/2018/2017_submission_orientation_generalicity/EXPDATA/raw_data/PP/subject-2.csv","11","legacy","Kafkaesque Koffka","3.2.6","yes","5a7ce671e83246000deafe81","0","0","j","NA","NA","j","NA","space","f","NA","space","381","NA","NA","381","NA","802","606","NA","796","2","legacy","1024","2","48000","-16","EXP","2","even","NA","16608","1255","1259","4010","16599","16599","NA","NA","28085","52097","25629","17415","27272","52602","52096","16609","28086","52602","52985","NA","51501","NA","17415","27243","17428","25628","17428","17427","17415","NA","27274","26135","26135","26743","NA","NA","53485","NA","16610","NA","5385","Orientation_PSA2018","15","8731","24","yes","1024","2002"
"F","100","F","F","PP_LIST2.csv","house.jpg","ring.jpg","60","60","360.4","360.4","#ffffff","yes","legacy","legacy","legacy","0","uniform","0","0","undefined","1","undefined","6","f","0","0","0","0","0","0","0","NA","18","0","18","5","0","0","18","18","0","0","18","18","18","18","NA","0","5","0","5","0","0","0","0","0","5","5","5","5","5","18","0","0","0","0","02/08/19 23:00:56","Matching Tasks","yes","","OrientationCrossLanguages_2018PSA_PP_1.1.0.osexp","D:/core/Research/OpenSci/PSA/2018/2017_submission_orientation_generalicity/Script","no","chinese-japanese-korean","no","18","no","#0000ff","no","Ok","no","Female","768","legacy","yes","no","18","18","1","5","D:/core/Research/OpenSci/PSA/2018/2017_submission_orientation_generalicity/EXPDATA/raw_data/PP/subject-2.csv","11","legacy","Kafkaesque Koffka","3.2.6","yes","5a7ce671e83246000deafe81","0","0","j","NA","NA","j","NA","space","f","NA","space","279","NA","NA","279","NA","802","606","NA","796","2","legacy","1024","2","48000","-16","EXP","2","even","NA","16608","1255","1259","4010","16599","16599","NA","NA","28085","53588","25629","17415","27272","54089","53586","16609","28086","54089","52985","NA","54371","NA","17415","27243","17428","25628","17428","17427","17415","NA","27274","26135","26135","26743","NA","NA","54871","NA","16610","NA","5385","Orientation_PSA2018","15","9010","25","yes","1024","2002"
"F","100","F","F","PP_LIST2.csv","piano.jpg","sutcse.jpg","57.6923076923","57.6923076923","357.230769231","357.230769231","#ffffff","yes","legacy","legacy","legacy","0","uniform","0","0","undefined","1","undefined","6","f","0","0","0","0","0","0","0","NA","19","0","19","5","0","0","19","19","0","0","19","19","19","19","NA","0","5","0","5","0","0","0","0","0","5","5","5","5","5","19","0","0","0","0","02/08/19 23:00:56","Matching Tasks","yes","","OrientationCrossLanguages_2018PSA_PP_1.1.0.osexp","D:/core/Research/OpenSci/PSA/2018/2017_submission_orientation_generalicity/Script","no","chinese-japanese-korean","no","18","no","#0000ff","no","Ok","no","Female","768","legacy","yes","no","19","19","1","5","D:/core/Research/OpenSci/PSA/2018/2017_submission_orientation_generalicity/EXPDATA/raw_data/PP/subject-2.csv","11","legacy","Kafkaesque Koffka","3.2.6","yes","5a7ce671e83246000deafe81","0","0","j","NA","NA","j","NA","space","f","NA","space","278","NA","NA","278","NA","802","606","NA","796","2","legacy","1024","2","48000","-16","EXP","2","even","NA","16608","1255","1259","4010","16599","16599","NA","NA","28085","54969","25629","17415","27272","55474","54967","16609","28086","55474","52985","NA","55754","NA","17415","27243","17428","25628","17428","17427","17415","NA","27274","26135","26135","26743","NA","NA","56255","NA","16610","NA","5385","Orientation_PSA2018","15","9288","26","yes","1024","2002"
"F","100","F","F","PP_LIST2.csv","umberella.jpg","flower.jpg","55.5555555556","55.5555555556","357.518518519","357.518518519","#ffffff","yes","legacy","legacy","legacy","0","uniform","0","0","undefined","1","undefined","6","f","0","0","0","0","0","0","0","NA","20","0","20","5","0","0","20","20","0","0","20","20","20","20","NA","0","5","0","5","0","0","0","0","0","5","5","5","5","5","20","0","0","0","0","02/08/19 23:00:56","Matching Tasks","yes","","OrientationCrossLanguages_2018PSA_PP_1.1.0.osexp","D:/core/Research/OpenSci/PSA/2018/2017_submission_orientation_generalicity/Script","no","chinese-japanese-korean","no","18","no","#0000ff","no","Ok","no","Female","768","legacy","yes","no","20","20","1","5","D:/core/Research/OpenSci/PSA/2018/2017_submission_orientation_generalicity/EXPDATA/raw_data/PP/subject-2.csv","11","legacy","Kafkaesque Koffka","3.2.6","yes","5a7ce671e83246000deafe81","0","0","j","NA","NA","j","NA","space","f","NA","space","365","NA","NA","365","NA","802","606","NA","796","2","legacy","1024","2","48000","-16","EXP","2","even","NA","16608","1255","1259","4010","16599","16599","NA","NA","28085","56363","25629","17415","27272","56868","56361","16609","28086","56868","52985","NA","57235","NA","17415","27243","17428","25628","17428","17427","17415","NA","27274","26135","26135","26743","NA","NA","57735","NA","16610","NA","5385","Orientation_PSA2018","15","9653","27","yes","1024","2002"
"F","100","F","F","PP_LIST2.csv","ring.jpg","stove.jpg","53.5714285714","53.5714285714","360.071428571","360.071428571","#ffffff","yes","legacy","legacy","legacy","0","uniform","0","0","undefined","1","undefined","6","f","0","0","0","0","0","0","0","NA","21","0","21","5","0","0","21","21","0","0","21","21","21","21","NA","0","5","0","5","0","0","0","0","0","5","5","5","5","5","21","0","0","0","0","02/08/19 23:00:56","Matching Tasks","yes","","OrientationCrossLanguages_2018PSA_PP_1.1.0.osexp","D:/core/Research/OpenSci/PSA/2018/2017_submission_orientation_generalicity/Script","no","chinese-japanese-korean","no","18","no","#0000ff","no","Ok","no","Female","768","legacy","yes","no","21","21","1","5","D:/core/Research/OpenSci/PSA/2018/2017_submission_orientation_generalicity/EXPDATA/raw_data/PP/subject-2.csv","11","legacy","Kafkaesque Koffka","3.2.6","yes","5a7ce671e83246000deafe81","0","0","j","NA","NA","j","NA","space","f","NA","space","429","NA","NA","429","NA","802","606","NA","796","2","legacy","1024","2","48000","-16","EXP","2","even","NA","16608","1255","1259","4010","16599","16599","NA","NA","28085","57834","25629","17415","27272","58335","57833","16609","28086","58335","52985","NA","58766","NA","17415","27243","17428","25628","17428","17427","17415","NA","27274","26135","26135","26743","NA","NA","59266","NA","16610","NA","5385","Orientation_PSA2018","15","10082","28","yes","1024","2002"
"Y","100","V","V","PP_LIST2.csv","axeV.jpg","axeV.jpg","55.1724137931","55.1724137931","361.310344828","361.310344828","#ffffff","yes","legacy","legacy","legacy","0","uniform","1","1","undefined","1","undefined","6","j","0","0","0","0","0","0","0","NA","22","0","22","5","0","0","22","22","0","0","22","22","22","22","NA","0","5","0","5","0","0","0","0","0","5","5","5","5","5","22","0","0","0","0","02/08/19 23:00:56","Matching Tasks","yes","","OrientationCrossLanguages_2018PSA_PP_1.1.0.osexp","D:/core/Research/OpenSci/PSA/2018/2017_submission_orientation_generalicity/Script","no","chinese-japanese-korean","no","18","no","#0000ff","no","Ok","no","Female","768","legacy","yes","no","22","22","1","5","D:/core/Research/OpenSci/PSA/2018/2017_submission_orientation_generalicity/EXPDATA/raw_data/PP/subject-2.csv","11","legacy","Kafkaesque Koffka","3.2.6","yes","5a7ce671e83246000deafe81","0","0","j","NA","NA","j","NA","space","f","NA","space","396","NA","NA","396","NA","802","606","NA","796","2","legacy","1024","2","48000","-16","EXP","2","even","NA","16608","1255","1259","4010","16599","16599","NA","NA","28085","59362","25629","17415","27272","59866","59360","16609","28086","59866","60265","NA","58766","NA","17415","27243","17428","25628","17428","17427","17415","NA","27274","26135","26135","26743","NA","NA","60765","NA","16610","NA","5385","Orientation_PSA2018","16","10478","29","yes","1024","2002"
"N","100","V","H","PP_LIST2.csv","pencilV.jpg","pencilH.jpg","56.6666666667","56.6666666667","367.033333333","367.033333333","#ffffff","yes","legacy","legacy","legacy","0","uniform","1","1","undefined","1","undefined","6","j","0","0","0","0","0","0","0","NA","23","0","23","5","0","0","23","23","0","0","23","23","23","23","NA","0","5","0","5","0","0","0","0","0","5","5","5","5","5","23","0","0","0","0","02/08/19 23:00:56","Matching Tasks","yes","","OrientationCrossLanguages_2018PSA_PP_1.1.0.osexp","D:/core/Research/OpenSci/PSA/2018/2017_submission_orientation_generalicity/Script","no","chinese-japanese-korean","no","18","no","#0000ff","no","Ok","no","Female","768","legacy","yes","no","23","23","1","5","D:/core/Research/OpenSci/PSA/2018/2017_submission_orientation_generalicity/EXPDATA/raw_data/PP/subject-2.csv","11","legacy","Kafkaesque Koffka","3.2.6","yes","5a7ce671e83246000deafe81","0","0","j","NA","NA","j","NA","space","f","NA","space","533","NA","NA","533","NA","802","606","NA","796","2","legacy","1024","2","48000","-16","EXP","2","even","NA","16608","1255","1259","4010","16599","16599","NA","NA","28085","60865","25629","17415","27272","61366","60864","16609","28086","61366","61901","NA","58766","NA","17415","27243","17428","25628","17428","17427","17415","NA","27274","26135","26135","26743","NA","NA","62401","NA","16610","NA","5385","Orientation_PSA2018","17","11011","30","yes","1024","2002"
"Y","100","H","H","PP_LIST2.csv","saltH.jpg","saltH.jpg","100","100","738","738","#ffffff","yes","legacy","legacy","legacy","0","uniform","1","1","undefined","1","undefined","6","j","0","0","0","0","0","0","0","0","24","0","24","5","0","0","24","24","0","0","24","24","24","24","NA","0","5","0","5","0","0","0","0","0","5","5","5","5","5","24","0","0","0","0","02/08/19 23:00:56","Matching Tasks","yes","","OrientationCrossLanguages_2018PSA_PP_1.1.0.osexp","D:/core/Research/OpenSci/PSA/2018/2017_submission_orientation_generalicity/Script","no","chinese-japanese-korean","no","18","no","#0000ff","no","Ok","no","Female","768","legacy","yes","no","24","24","1","5","D:/core/Research/OpenSci/PSA/2018/2017_submission_orientation_generalicity/EXPDATA/raw_data/PP/subject-2.csv","11","legacy","Kafkaesque Koffka","3.2.6","yes","5a7ce671e83246000deafe81","0","0","j","space","NA","j","NA","space","f","NA","space","738","787","NA","738","NA","802","606","NA","796","2","legacy","1024","2","48000","-16","EXP","2","even","NA","16608","1255","1259","4010","16599","16599","62443","NA","28085","63312","25629","17415","27272","63816","63311","16609","28086","63817","64556","NA","58766","NA","17415","27243","17428","25628","17428","17427","17415","NA","27274","26135","26135","26743","NA","NA","65057","NA","16610","NA","5385","Orientation_PSA2018","1","738","1","yes","1024","2002"
"N","100","H","V","PP_LIST2.csv","flashH.jpg","flashV.jpg","100","100","597.5","597.5","#ffffff","yes","legacy","legacy","legacy","0","uniform","1","1","undefined","1","undefined","6","j","0","0","0","0","0","0","0","0","25","0","25","5","0","0","25","25","0","0","25","25","25","25","NA","0","5","0","5","0","0","0","0","0","5","5","5","5","5","25","0","0","0","0","02/08/19 23:00:56","Matching Tasks","yes","","OrientationCrossLanguages_2018PSA_PP_1.1.0.osexp","D:/core/Research/OpenSci/PSA/2018/2017_submission_orientation_generalicity/Script","no","chinese-japanese-korean","no","18","no","#0000ff","no","Ok","no","Female","768","legacy","yes","no","25","25","1","5","D:/core/Research/OpenSci/PSA/2018/2017_submission_orientation_generalicity/EXPDATA/raw_data/PP/subject-2.csv","11","legacy","Kafkaesque Koffka","3.2.6","yes","5a7ce671e83246000deafe81","0","0","j","space","NA","j","NA","space","f","NA","space","457","787","NA","457","NA","802","606","NA","796","2","legacy","1024","2","48000","-16","EXP","2","even","NA","16608","1255","1259","4010","16599","16599","62443","NA","28085","65163","25629","17415","27272","65665","65162","16609","28086","65665","66124","NA","58766","NA","17415","27243","17428","25628","17428","17427","17415","NA","27274","26135","26135","26743","NA","NA","66624","NA","16610","NA","5385","Orientation_PSA2018","2","1195","2","yes","1024","2002"
"F","100","F","F","PP_LIST2.csv","tapedispenser.jpg","wrench.jpg","66.6666666667","66.6666666667","505.666666667","505.666666667","#ffffff","yes","legacy","legacy","legacy","0","uniform","0","0","undefined","1","undefined","6","f","0","0","0","0","0","0","0","0","26","0","26","5","0","0","26","26","0","0","26","26","26","26","NA","0","5","0","5","0","0","0","0","0","5","5","5","5","5","26","0","0","0","0","02/08/19 23:00:56","Matching Tasks","yes","","OrientationCrossLanguages_2018PSA_PP_1.1.0.osexp","D:/core/Research/OpenSci/PSA/2018/2017_submission_orientation_generalicity/Script","no","chinese-japanese-korean","no","18","no","#0000ff","no","Ok","no","Female","768","legacy","yes","no","26","26","1","5","D:/core/Research/OpenSci/PSA/2018/2017_submission_orientation_generalicity/EXPDATA/raw_data/PP/subject-2.csv","11","legacy","Kafkaesque Koffka","3.2.6","yes","5a7ce671e83246000deafe81","0","0","j","space","NA","j","NA","space","f","NA","space","322","787","NA","322","NA","802","606","NA","796","2","legacy","1024","2","48000","-16","EXP","2","even","NA","16608","1255","1259","4010","16599","16599","62443","NA","28085","66719","25629","17415","27272","67224","66717","16609","28086","67224","66124","NA","67548","NA","17415","27243","17428","25628","17428","17427","17415","NA","27274","26135","26135","26743","NA","NA","68048","NA","16610","NA","5385","Orientation_PSA2018","2","1517","3","yes","1024","2002"
"F","100","F","F","PP_LIST2.csv","wndmil.jpg","mitten.jpg","50","50","457.75","457.75","#ffffff","yes","legacy","legacy","legacy","0","uniform","0","0","undefined","1","undefined","6","f","0","0","0","0","0","0","0","0","27","0","27","5","0","0","27","27","0","0","27","27","27","27","NA","0","5","0","5","0","0","0","0","0","5","5","5","5","5","27","0","0","0","0","02/08/19 23:00:56","Matching Tasks","yes","","OrientationCrossLanguages_2018PSA_PP_1.1.0.osexp","D:/core/Research/OpenSci/PSA/2018/2017_submission_orientation_generalicity/Script","no","chinese-japanese-korean","no","18","no","#0000ff","no","Ok","no","Female","768","legacy","yes","no","27","27","1","5","D:/core/Research/OpenSci/PSA/2018/2017_submission_orientation_generalicity/EXPDATA/raw_data/PP/subject-2.csv","11","legacy","Kafkaesque Koffka","3.2.6","yes","5a7ce671e83246000deafe81","0","0","j","space","NA","j","NA","space","f","NA","space","314","787","NA","314","NA","802","606","NA","796","2","legacy","1024","2","48000","-16","EXP","2","even","NA","16608","1255","1259","4010","16599","16599","62443","NA","28085","68151","25629","17415","27272","68652","68150","16609","28086","68652","66124","NA","68968","NA","17415","27243","17428","25628","17428","17427","17415","NA","27274","26135","26135","26743","NA","NA","69468","NA","16610","NA","5385","Orientation_PSA2018","2","1831","4","yes","1024","2002"
"N","100","V","H","PP_LIST2.csv","keyV.jpg","keyH.jpg","60","60","429.4","429.4","#ffffff","yes","legacy","legacy","legacy","0","uniform","1","1","undefined","1","undefined","6","j","0","0","0","0","0","0","0","0","28","0","28","5","0","0","28","28","0","0","28","28","28","28","NA","0","5","0","5","0","0","0","0","0","5","5","5","5","5","28","0","0","0","0","02/08/19 23:00:56","Matching Tasks","yes","","OrientationCrossLanguages_2018PSA_PP_1.1.0.osexp","D:/core/Research/OpenSci/PSA/2018/2017_submission_orientation_generalicity/Script","no","chinese-japanese-korean","no","18","no","#0000ff","no","Ok","no","Female","768","legacy","yes","no","28","28","1","5","D:/core/Research/OpenSci/PSA/2018/2017_submission_orientation_generalicity/EXPDATA/raw_data/PP/subject-2.csv","11","legacy","Kafkaesque Koffka","3.2.6","yes","5a7ce671e83246000deafe81","0","0","j","space","NA","j","NA","space","f","NA","space","316","787","NA","316","NA","802","606","NA","796","2","legacy","1024","2","48000","-16","EXP","2","even","NA","16608","1255","1259","4010","16599","16599","62443","NA","28085","69565","25629","17415","27272","70066","69562","16609","28086","70066","70384","NA","68968","NA","17415","27243","17428","25628","17428","17427","17415","NA","27274","26135","26135","26743","NA","NA","70884","NA","16610","NA","5385","Orientation_PSA2018","3","2147","5","yes","1024","2002"
"N","100","H","V","PP_LIST2.csv","fire_extinguisherH.jpg","fire_extinguisherV.jpg","66.6666666667","66.6666666667","429.833333333","429.833333333","#ffffff","yes","legacy","legacy","legacy","0","uniform","1","1","undefined","1","undefined","6","j","0","0","0","0","0","0","0","0","29","0","29","5","0","0","29","29","0","0","29","29","29","29","NA","0","5","0","5","0","0","0","0","0","5","5","5","5","5","29","0","0","0","0","02/08/19 23:00:56","Matching Tasks","yes","","OrientationCrossLanguages_2018PSA_PP_1.1.0.osexp","D:/core/Research/OpenSci/PSA/2018/2017_submission_orientation_generalicity/Script","no","chinese-japanese-korean","no","18","no","#0000ff","no","Ok","no","Female","768","legacy","yes","no","29","29","1","5","D:/core/Research/OpenSci/PSA/2018/2017_submission_orientation_generalicity/EXPDATA/raw_data/PP/subject-2.csv","11","legacy","Kafkaesque Koffka","3.2.6","yes","5a7ce671e83246000deafe81","0","0","j","space","NA","j","NA","space","f","NA","space","432","787","NA","432","NA","802","606","NA","796","2","legacy","1024","2","48000","-16","EXP","2","even","NA","16608","1255","1259","4010","16599","16599","62443","NA","28085","70987","25629","17415","27272","71488","70985","16609","28086","71488","71922","NA","68968","NA","17415","27243","17428","25628","17428","17427","17415","NA","27274","26135","26135","26743","NA","NA","72422","NA","16610","NA","5385","Orientation_PSA2018","4","2579","6","yes","1024","2002"
"Y","100","H","H","PP_LIST2.csv","scssorH.jpg","scssorH.jpg","71.4285714286","71.4285714286","440.571428571","440.571428571","#ffffff","yes","legacy","legacy","legacy","0","uniform","1","1","undefined","1","undefined","6","j","0","0","0","0","0","0","0","0","30","0","30","5","0","0","30","30","0","0","30","30","30","30","NA","0","5","0","5","0","0","0","0","0","5","5","5","5","5","30","0","0","0","0","02/08/19 23:00:56","Matching Tasks","yes","","OrientationCrossLanguages_2018PSA_PP_1.1.0.osexp","D:/core/Research/OpenSci/PSA/2018/2017_submission_orientation_generalicity/Script","no","chinese-japanese-korean","no","18","no","#0000ff","no","Ok","no","Female","768","legacy","yes","no","30","30","1","5","D:/core/Research/OpenSci/PSA/2018/2017_submission_orientation_generalicity/EXPDATA/raw_data/PP/subject-2.csv","11","legacy","Kafkaesque Koffka","3.2.6","yes","5a7ce671e83246000deafe81","0","0","j","space","NA","j","NA","space","f","NA","space","505","787","NA","505","NA","802","606","NA","796","2","legacy","1024","2","48000","-16","EXP","2","even","NA","16608","1255","1259","4010","16599","16599","62443","NA","28085","72518","25629","17415","27272","73019","72517","16609","28086","73019","73526","NA","68968","NA","17415","27243","17428","25628","17428","17427","17415","NA","27274","26135","26135","26743","NA","NA","74026","NA","16610","NA","5385","Orientation_PSA2018","5","3084","7","yes","1024","2002"
"Y","100","H","H","PP_LIST2.csv","penH.jpg","penH.jpg","75","75","454.5","454.5","#ffffff","yes","legacy","legacy","legacy","0","uniform","1","1","undefined","1","undefined","6","j","0","0","0","0","0","0","0","0","31","0","31","5","0","0","31","31","0","0","31","31","31","31","NA","0","5","0","5","0","0","0","0","0","5","5","5","5","5","31","0","0","0","0","02/08/19 23:00:56","Matching Tasks","yes","","OrientationCrossLanguages_2018PSA_PP_1.1.0.osexp","D:/core/Research/OpenSci/PSA/2018/2017_submission_orientation_generalicity/Script","no","chinese-japanese-korean","no","18","no","#0000ff","no","Ok","no","Female","768","legacy","yes","no","31","31","1","5","D:/core/Research/OpenSci/PSA/2018/2017_submission_orientation_generalicity/EXPDATA/raw_data/PP/subject-2.csv","11","legacy","Kafkaesque Koffka","3.2.6","yes","5a7ce671e83246000deafe81","0","0","j","space","NA","j","NA","space","f","NA","space","552","787","NA","552","NA","802","606","NA","796","2","legacy","1024","2","48000","-16","EXP","2","even","NA","16608","1255","1259","4010","16599","16599","62443","NA","28085","74125","25629","17415","27272","74626","74123","16609","28086","74626","75180","NA","68968","NA","17415","27243","17428","25628","17428","17427","17415","NA","27274","26135","26135","26743","NA","NA","75680","NA","16610","NA","5385","Orientation_PSA2018","6","3636","8","yes","1024","2002"
"F","100","F","F","PP_LIST2.csv","ladder.jpg","house.jpg","66.6666666667","66.6666666667","441.111111111","441.111111111","#ffffff","yes","legacy","legacy","legacy","0","uniform","0","0","undefined","1","undefined","6","f","0","0","0","0","0","0","0","0","32","0","32","5","0","0","32","32","0","0","32","32","32","32","NA","0","5","0","5","0","0","0","0","0","5","5","5","5","5","32","0","0","0","0","02/08/19 23:00:56","Matching Tasks","yes","","OrientationCrossLanguages_2018PSA_PP_1.1.0.osexp","D:/core/Research/OpenSci/PSA/2018/2017_submission_orientation_generalicity/Script","no","chinese-japanese-korean","no","18","no","#0000ff","no","Ok","no","Female","768","legacy","yes","no","32","32","1","5","D:/core/Research/OpenSci/PSA/2018/2017_submission_orientation_generalicity/EXPDATA/raw_data/PP/subject-2.csv","11","legacy","Kafkaesque Koffka","3.2.6","yes","5a7ce671e83246000deafe81","0","0","j","space","NA","j","NA","space","f","NA","space","334","787","NA","334","NA","802","606","NA","796","2","legacy","1024","2","48000","-16","EXP","2","even","NA","16608","1255","1259","4010","16599","16599","62443","NA","28085","75775","25629","17415","27272","76276","75774","16609","28086","76276","75180","NA","76612","NA","17415","27243","17428","25628","17428","17427","17415","NA","27274","26135","26135","26743","NA","NA","77112","NA","16610","NA","5385","Orientation_PSA2018","6","3970","9","yes","1024","2002"
"F","100","F","F","PP_LIST2.csv","buggy.jpg","glass.jpg","60","60","442.2","442.2","#ffffff","yes","legacy","legacy","legacy","0","uniform","0","0","undefined","1","undefined","6","f","0","0","0","0","0","0","0","0","33","0","33","5","0","0","33","33","0","0","33","33","33","33","NA","0","5","0","5","0","0","0","0","0","5","5","5","5","5","33","0","0","0","0","02/08/19 23:00:56","Matching Tasks","yes","","OrientationCrossLanguages_2018PSA_PP_1.1.0.osexp","D:/core/Research/OpenSci/PSA/2018/2017_submission_orientation_generalicity/Script","no","chinese-japanese-korean","no","18","no","#0000ff","no","Ok","no","Female","768","legacy","yes","no","33","33","1","5","D:/core/Research/OpenSci/PSA/2018/2017_submission_orientation_generalicity/EXPDATA/raw_data/PP/subject-2.csv","11","legacy","Kafkaesque Koffka","3.2.6","yes","5a7ce671e83246000deafe81","0","0","j","space","NA","j","NA","space","f","NA","space","452","787","NA","452","NA","802","606","NA","796","2","legacy","1024","2","48000","-16","EXP","2","even","NA","16608","1255","1259","4010","16599","16599","62443","NA","28085","77211","25629","17415","27272","77712","77210","16609","28086","77712","75180","NA","78166","NA","17415","27243","17428","25628","17428","17427","17415","NA","27274","26135","26135","26743","NA","NA","78666","NA","16610","NA","5385","Orientation_PSA2018","6","4422","10","yes","1024","2002"
"F","100","F","F","PP_LIST2.csv","needle.jpg","tiger.jpg","54.5454545455","54.5454545455","443.363636364","443.363636364","#ffffff","yes","legacy","legacy","legacy","0","uniform","0","0","undefined","1","undefined","6","f","0","0","0","0","0","0","0","0","34","0","34","5","0","0","34","34","0","0","34","34","34","34","NA","0","5","0","5","0","0","0","0","0","5","5","5","5","5","34","0","0","0","0","02/08/19 23:00:56","Matching Tasks","yes","","OrientationCrossLanguages_2018PSA_PP_1.1.0.osexp","D:/core/Research/OpenSci/PSA/2018/2017_submission_orientation_generalicity/Script","no","chinese-japanese-korean","no","18","no","#0000ff","no","Ok","no","Female","768","legacy","yes","no","34","34","1","5","D:/core/Research/OpenSci/PSA/2018/2017_submission_orientation_generalicity/EXPDATA/raw_data/PP/subject-2.csv","11","legacy","Kafkaesque Koffka","3.2.6","yes","5a7ce671e83246000deafe81","0","0","j","space","NA","j","NA","space","f","NA","space","455","787","NA","455","NA","802","606","NA","796","2","legacy","1024","2","48000","-16","EXP","2","even","NA","16608","1255","1259","4010","16599","16599","62443","NA","28085","78762","25629","17415","27272","79263","78761","16609","28086","79263","75180","NA","79720","NA","17415","27243","17428","25628","17428","17427","17415","NA","27274","26135","26135","26743","NA","NA","80220","NA","16610","NA","5385","Orientation_PSA2018","6","4877","11","yes","1024","2002"
"Y","100","V","V","PP_LIST2.csv","broomV.jpg","broomV.jpg","58.3333333333","58.3333333333","442.416666667","442.416666667","#ffffff","yes","legacy","legacy","legacy","0","uniform","1","1","undefined","1","undefined","6","j","0","0","0","0","0","0","0","0","35","0","35","5","0","0","35","35","0","0","35","35","35","35","NA","0","5","0","5","0","0","0","0","0","5","5","5","5","5","35","0","0","0","0","02/08/19 23:00:56","Matching Tasks","yes","","OrientationCrossLanguages_2018PSA_PP_1.1.0.osexp","D:/core/Research/OpenSci/PSA/2018/2017_submission_orientation_generalicity/Script","no","chinese-japanese-korean","no","18","no","#0000ff","no","Ok","no","Female","768","legacy","yes","no","35","35","1","5","D:/core/Research/OpenSci/PSA/2018/2017_submission_orientation_generalicity/EXPDATA/raw_data/PP/subject-2.csv","11","legacy","Kafkaesque Koffka","3.2.6","yes","5a7ce671e83246000deafe81","0","0","j","space","NA","j","NA","space","f","NA","space","432","787","NA","432","NA","802","606","NA","796","2","legacy","1024","2","48000","-16","EXP","2","even","NA","16608","1255","1259","4010","16599","16599","62443","NA","28085","80317","25629","17415","27272","80818","80315","16609","28086","80818","81252","NA","79720","NA","17415","27243","17428","25628","17428","17427","17415","NA","27274","26135","26135","26743","NA","NA","81752","NA","16610","NA","5385","Orientation_PSA2018","7","5309","12","yes","1024","2002"
"N","100","H","V","PP_LIST2.csv","brushH.jpg","brushV.jpg","61.5384615385","61.5384615385","439.615384615","439.615384615","#ffffff","yes","legacy","legacy","legacy","0","uniform","1","1","undefined","1","undefined","6","j","0","0","0","0","0","0","0","0","36","0","36","5","0","0","36","36","0","0","36","36","36","36","NA","0","5","0","5","0","0","0","0","0","5","5","5","5","5","36","0","0","0","0","02/08/19 23:00:56","Matching Tasks","yes","","OrientationCrossLanguages_2018PSA_PP_1.1.0.osexp","D:/core/Research/OpenSci/PSA/2018/2017_submission_orientation_generalicity/Script","no","chinese-japanese-korean","no","18","no","#0000ff","no","Ok","no","Female","768","legacy","yes","no","36","36","1","5","D:/core/Research/OpenSci/PSA/2018/2017_submission_orientation_generalicity/EXPDATA/raw_data/PP/subject-2.csv","11","legacy","Kafkaesque Koffka","3.2.6","yes","5a7ce671e83246000deafe81","0","0","j","space","NA","j","NA","space","f","NA","space","406","787","NA","406","NA","802","606","NA","796","2","legacy","1024","2","48000","-16","EXP","2","even","NA","16608","1255","1259","4010","16599","16599","62443","NA","28085","81854","25629","17415","27272","82355","81853","16609","28086","82355","82763","NA","79720","NA","17415","27243","17428","25628","17428","17427","17415","NA","27274","26135","26135","26743","NA","NA","83263","NA","16610","NA","5385","Orientation_PSA2018","8","5715","13","yes","1024","2002"
"F","100","F","F","PP_LIST2.csv","knife.jpg","ladder.jpg","57.1428571429","57.1428571429","437.5","437.5","#ffffff","yes","legacy","legacy","legacy","0","uniform","0","0","undefined","1","undefined","6","f","0","0","0","0","0","0","0","0","37","0","37","5","0","0","37","37","0","0","37","37","37","37","NA","0","5","0","5","0","0","0","0","0","5","5","5","5","5","37","0","0","0","0","02/08/19 23:00:56","Matching Tasks","yes","","OrientationCrossLanguages_2018PSA_PP_1.1.0.osexp","D:/core/Research/OpenSci/PSA/2018/2017_submission_orientation_generalicity/Script","no","chinese-japanese-korean","no","18","no","#0000ff","no","Ok","no","Female","768","legacy","yes","no","37","37","1","5","D:/core/Research/OpenSci/PSA/2018/2017_submission_orientation_generalicity/EXPDATA/raw_data/PP/subject-2.csv","11","legacy","Kafkaesque Koffka","3.2.6","yes","5a7ce671e83246000deafe81","0","0","j","space","NA","j","NA","space","f","NA","space","410","787","NA","410","NA","802","606","NA","796","2","legacy","1024","2","48000","-16","EXP","2","even","NA","16608","1255","1259","4010","16599","16599","62443","NA","28085","83407","25629","17415","27272","83912","83406","16609","28086","83912","82763","NA","84324","NA","17415","27243","17428","25628","17428","17427","17415","NA","27274","26135","26135","26743","NA","NA","84824","NA","16610","NA","5385","Orientation_PSA2018","8","6125","14","yes","1024","2002"
"F","100","F","F","PP_LIST2.csv","ftball.jpg","nut.jpg","53.3333333333","53.3333333333","447.466666667","447.466666667","#ffffff","yes","legacy","legacy","legacy","0","uniform","0","0","undefined","1","undefined","6","f","0","0","0","0","0","0","0","0","38","0","38","5","0","0","38","38","0","0","38","38","38","38","NA","0","5","0","5","0","0","0","0","0","5","5","5","5","5","38","0","0","0","0","02/08/19 23:00:56","Matching Tasks","yes","","OrientationCrossLanguages_2018PSA_PP_1.1.0.osexp","D:/core/Research/OpenSci/PSA/2018/2017_submission_orientation_generalicity/Script","no","chinese-japanese-korean","no","18","no","#0000ff","no","Ok","no","Female","768","legacy","yes","no","38","38","1","5","D:/core/Research/OpenSci/PSA/2018/2017_submission_orientation_generalicity/EXPDATA/raw_data/PP/subject-2.csv","11","legacy","Kafkaesque Koffka","3.2.6","yes","5a7ce671e83246000deafe81","0","0","j","space","NA","j","NA","space","f","NA","space","587","787","NA","587","NA","802","606","NA","796","2","legacy","1024","2","48000","-16","EXP","2","even","NA","16608","1255","1259","4010","16599","16599","62443","NA","28085","84923","25629","17415","27272","85424","84922","16609","28086","85424","82763","NA","86013","NA","17415","27243","17428","25628","17428","17427","17415","NA","27274","26135","26135","26743","NA","NA","86513","NA","16610","NA","5385","Orientation_PSA2018","8","6712","15","yes","1024","2002"
"Y","100","H","H","PP_LIST2.csv","plateH.jpg","plateH.jpg","56.25","56.25","468.0625","468.0625","#ffffff","yes","legacy","legacy","legacy","0","uniform","1","1","undefined","1","undefined","6","j","0","0","0","0","0","0","0","0","39","0","39","5","0","0","39","39","0","0","39","39","39","39","NA","0","5","0","5","0","0","0","0","0","5","5","5","5","5","39","0","0","0","0","02/08/19 23:00:56","Matching Tasks","yes","","OrientationCrossLanguages_2018PSA_PP_1.1.0.osexp","D:/core/Research/OpenSci/PSA/2018/2017_submission_orientation_generalicity/Script","no","chinese-japanese-korean","no","18","no","#0000ff","no","Ok","no","Female","768","legacy","yes","no","39","39","1","5","D:/core/Research/OpenSci/PSA/2018/2017_submission_orientation_generalicity/EXPDATA/raw_data/PP/subject-2.csv","11","legacy","Kafkaesque Koffka","3.2.6","yes","5a7ce671e83246000deafe81","0","0","j","space","NA","j","NA","space","f","NA","space","777","787","NA","777","NA","802","606","NA","796","2","legacy","1024","2","48000","-16","EXP","2","even","NA","16608","1255","1259","4010","16599","16599","62443","NA","28085","86620","25629","17415","27272","87122","86619","16609","28086","87122","87901","NA","86013","NA","17415","27243","17428","25628","17428","17427","17415","NA","27274","26135","26135","26743","NA","NA","88401","NA","16610","NA","5385","Orientation_PSA2018","9","7489","16","yes","1024","2002"
"Y","100","H","H","PP_LIST2.csv","tireH.jpg","tireH.jpg","58.8235294118","58.8235294118","452","452","#ffffff","yes","legacy","legacy","legacy","0","uniform","1","1","undefined","1","undefined","6","j","0","0","0","0","0","0","0","0","40","0","40","5","0","0","40","40","0","0","40","40","40","40","NA","0","5","0","5","0","0","0","0","0","5","5","5","5","5","40","0","0","0","0","02/08/19 23:00:56","Matching Tasks","yes","","OrientationCrossLanguages_2018PSA_PP_1.1.0.osexp","D:/core/Research/OpenSci/PSA/2018/2017_submission_orientation_generalicity/Script","no","chinese-japanese-korean","no","18","no","#0000ff","no","Ok","no","Female","768","legacy","yes","no","40","40","1","5","D:/core/Research/OpenSci/PSA/2018/2017_submission_orientation_generalicity/EXPDATA/raw_data/PP/subject-2.csv","11","legacy","Kafkaesque Koffka","3.2.6","yes","5a7ce671e83246000deafe81","0","0","j","space","NA","j","NA","space","f","NA","space","195","787","NA","195","NA","802","606","NA","796","2","legacy","1024","2","48000","-16","EXP","2","even","NA","16608","1255","1259","4010","16599","16599","62443","NA","28085","88506","25629","17415","27272","89010","88504","16609","28086","89010","89208","NA","86013","NA","17415","27243","17428","25628","17428","17427","17415","NA","27274","26135","26135","26743","NA","NA","89708","NA","16610","NA","5385","Orientation_PSA2018","10","7684","17","yes","1024","2002"
"Y","100","H","H","PP_LIST2.csv","screwH.jpg","screwH.jpg","61.1111111111","61.1111111111","439.777777778","439.777777778","#ffffff","yes","legacy","legacy","legacy","0","uniform","1","1","undefined","1","undefined","6","j","0","0","0","0","0","0","0","0","41","0","41","5","0","0","41","41","0","0","41","41","41","41","NA","0","5","0","5","0","0","0","0","0","5","5","5","5","5","41","0","0","0","0","02/08/19 23:00:56","Matching Tasks","yes","","OrientationCrossLanguages_2018PSA_PP_1.1.0.osexp","D:/core/Research/OpenSci/PSA/2018/2017_submission_orientation_generalicity/Script","no","chinese-japanese-korean","no","18","no","#0000ff","no","Ok","no","Female","768","legacy","yes","no","41","41","1","5","D:/core/Research/OpenSci/PSA/2018/2017_submission_orientation_generalicity/EXPDATA/raw_data/PP/subject-2.csv","11","legacy","Kafkaesque Koffka","3.2.6","yes","5a7ce671e83246000deafe81","0","0","j","space","NA","j","NA","space","f","NA","space","232","787","NA","232","NA","802","606","NA","796","2","legacy","1024","2","48000","-16","EXP","2","even","NA","16608","1255","1259","4010","16599","16599","62443","NA","28085","89829","25629","17415","27272","90333","89827","16609","28086","90334","90567","NA","86013","NA","17415","27243","17428","25628","17428","17427","17415","NA","27274","26135","26135","26743","NA","NA","91067","NA","16610","NA","5385","Orientation_PSA2018","11","7916","18","yes","1024","2002"
"N","100","V","H","PP_LIST2.csv","nailV.jpg","nailH.jpg","63.1578947368","63.1578947368","497","497","#ffffff","yes","legacy","legacy","legacy","0","uniform","1","1","undefined","1","undefined","6","j","0","0","0","0","0","0","0","0","42","0","42","5","0","0","42","42","0","0","42","42","42","42","NA","0","5","0","5","0","0","0","0","0","5","5","5","5","5","42","0","0","0","0","02/08/19 23:00:56","Matching Tasks","yes","","OrientationCrossLanguages_2018PSA_PP_1.1.0.osexp","D:/core/Research/OpenSci/PSA/2018/2017_submission_orientation_generalicity/Script","no","chinese-japanese-korean","no","18","no","#0000ff","no","Ok","no","Female","768","legacy","yes","no","42","42","1","5","D:/core/Research/OpenSci/PSA/2018/2017_submission_orientation_generalicity/EXPDATA/raw_data/PP/subject-2.csv","11","legacy","Kafkaesque Koffka","3.2.6","yes","5a7ce671e83246000deafe81","0","0","j","space","NA","j","NA","space","f","NA","space","1527","787","NA","1527","NA","802","606","NA","796","2","legacy","1024","2","48000","-16","EXP","2","even","NA","16608","1255","1259","4010","16599","16599","62443","NA","28085","91163","25629","17415","27272","91664","91161","16609","28086","91664","93193","93694","86013","NA","17415","27243","17428","25628","17428","17427","17415","NA","27274","26135","26135","26743","NA","NA","94194","NA","16610","NA","5385","Orientation_PSA2018","12","9443","19","yes","1024","2002"
"F","100","F","F","PP_LIST2.csv","tlphon.jpg","knife.jpg","60","60","492.55","492.55","#ffffff","yes","legacy","legacy","legacy","0","uniform","0","0","undefined","1","undefined","6","f","0","0","0","0","0","0","0","0","43","0","43","5","0","0","43","43","0","0","43","43","43","43","NA","0","5","0","5","0","0","0","0","0","5","5","5","5","5","43","0","0","0","0","02/08/19 23:00:56","Matching Tasks","yes","","OrientationCrossLanguages_2018PSA_PP_1.1.0.osexp","D:/core/Research/OpenSci/PSA/2018/2017_submission_orientation_generalicity/Script","no","chinese-japanese-korean","no","18","no","#0000ff","no","Ok","no","Female","768","legacy","yes","no","43","43","1","5","D:/core/Research/OpenSci/PSA/2018/2017_submission_orientation_generalicity/EXPDATA/raw_data/PP/subject-2.csv","11","legacy","Kafkaesque Koffka","3.2.6","yes","5a7ce671e83246000deafe81","0","0","j","space","NA","j","NA","space","f","NA","space","408","787","NA","408","NA","802","606","NA","796","2","legacy","1024","2","48000","-16","EXP","2","even","NA","16608","1255","1259","4010","16599","16599","62443","NA","28085","94291","25629","17415","27272","94796","94289","16609","28086","94797","93193","93694","95207","NA","17415","27243","17428","25628","17428","17427","17415","NA","27274","26135","26135","26743","NA","NA","95707","NA","16610","NA","5385","Orientation_PSA2018","12","9851","20","yes","1024","2002"
"F","100","F","F","PP_LIST2.csv","pumpkin.jpg","trmpet.jpg","57.1428571429","57.1428571429","482.333333333","482.333333333","#ffffff","yes","legacy","legacy","legacy","0","uniform","0","0","undefined","1","undefined","6","f","0","0","0","0","0","0","0","0","44","0","44","5","0","0","44","44","0","0","44","44","44","44","NA","0","5","0","5","0","0","0","0","0","5","5","5","5","5","44","0","0","0","0","02/08/19 23:00:56","Matching Tasks","yes","","OrientationCrossLanguages_2018PSA_PP_1.1.0.osexp","D:/core/Research/OpenSci/PSA/2018/2017_submission_orientation_generalicity/Script","no","chinese-japanese-korean","no","18","no","#0000ff","no","Ok","no","Female","768","legacy","yes","no","44","44","1","5","D:/core/Research/OpenSci/PSA/2018/2017_submission_orientation_generalicity/EXPDATA/raw_data/PP/subject-2.csv","11","legacy","Kafkaesque Koffka","3.2.6","yes","5a7ce671e83246000deafe81","0","0","j","space","NA","j","NA","space","f","NA","space","278","787","NA","278","NA","802","606","NA","796","2","legacy","1024","2","48000","-16","EXP","2","even","NA","16608","1255","1259","4010","16599","16599","62443","NA","28085","95807","25629","17415","27272","96308","95805","16609","28086","96308","93193","93694","96588","NA","17415","27243","17428","25628","17428","17427","17415","NA","27274","26135","26135","26743","NA","NA","97088","NA","16610","NA","5385","Orientation_PSA2018","12","10129","21","yes","1024","2002"
"Y","100","V","V","PP_LIST2.csv","bookV.jpg","bookV.jpg","59.0909090909","59.0909090909","478.090909091","478.090909091","#ffffff","yes","legacy","legacy","legacy","0","uniform","1","1","undefined","1","undefined","6","j","0","0","0","0","0","0","0","0","45","0","45","5","0","0","45","45","0","0","45","45","45","45","NA","0","5","0","5","0","0","0","0","0","5","5","5","5","5","45","0","0","0","0","02/08/19 23:00:56","Matching Tasks","yes","","OrientationCrossLanguages_2018PSA_PP_1.1.0.osexp","D:/core/Research/OpenSci/PSA/2018/2017_submission_orientation_generalicity/Script","no","chinese-japanese-korean","no","18","no","#0000ff","no","Ok","no","Female","768","legacy","yes","no","45","45","1","5","D:/core/Research/OpenSci/PSA/2018/2017_submission_orientation_generalicity/EXPDATA/raw_data/PP/subject-2.csv","11","legacy","Kafkaesque Koffka","3.2.6","yes","5a7ce671e83246000deafe81","0","0","j","space","NA","j","NA","space","f","NA","space","389","787","NA","389","NA","802","606","NA","796","2","legacy","1024","2","48000","-16","EXP","2","even","NA","16608","1255","1259","4010","16599","16599","62443","NA","28085","97184","25629","17415","27272","97685","97182","16609","28086","97685","98076","93694","96588","NA","17415","27243","17428","25628","17428","17427","17415","NA","27274","26135","26135","26743","NA","NA","98576","NA","16610","NA","5385","Orientation_PSA2018","13","10518","22","yes","1024","2002"
"Y","100","V","V","PP_LIST2.csv","batV.jpg","batV.jpg","60.8695652174","60.8695652174","471.086956522","471.086956522","#ffffff","yes","legacy","legacy","legacy","0","uniform","1","1","undefined","1","undefined","6","j","0","0","0","0","0","0","0","0","46","0","46","5","0","0","46","46","0","0","46","46","46","46","NA","0","5","0","5","0","0","0","0","0","5","5","5","5","5","46","0","0","0","0","02/08/19 23:00:56","Matching Tasks","yes","","OrientationCrossLanguages_2018PSA_PP_1.1.0.osexp","D:/core/Research/OpenSci/PSA/2018/2017_submission_orientation_generalicity/Script","no","chinese-japanese-korean","no","18","no","#0000ff","no","Ok","no","Female","768","legacy","yes","no","46","46","1","5","D:/core/Research/OpenSci/PSA/2018/2017_submission_orientation_generalicity/EXPDATA/raw_data/PP/subject-2.csv","11","legacy","Kafkaesque Koffka","3.2.6","yes","5a7ce671e83246000deafe81","0","0","j","space","NA","j","NA","space","f","NA","space","317","787","NA","317","NA","802","606","NA","796","2","legacy","1024","2","48000","-16","EXP","2","even","NA","16608","1255","1259","4010","16599","16599","62443","NA","28085","98684","25629","17415","27272","99185","98682","16609","28086","99185","99504","93694","96588","NA","17415","27243","17428","25628","17428","17427","17415","NA","27274","26135","26135","26743","NA","NA","100004","NA","16610","NA","5385","Orientation_PSA2018","14","10835","23","yes","1024","2002"
"F","100","F","F","PP_LIST2.csv","sutcse.jpg","pumpkin.jpg","58.3333333333","58.3333333333","469.5","469.5","#ffffff","yes","legacy","legacy","legacy","0","uniform","0","0","undefined","1","undefined","6","f","0","0","0","0","0","0","0","0","47","0","47","5","0","0","47","47","0","0","47","47","47","47","NA","0","5","0","5","0","0","0","0","0","5","5","5","5","5","47","0","0","0","0","02/08/19 23:00:56","Matching Tasks","yes","","OrientationCrossLanguages_2018PSA_PP_1.1.0.osexp","D:/core/Research/OpenSci/PSA/2018/2017_submission_orientation_generalicity/Script","no","chinese-japanese-korean","no","18","no","#0000ff","no","Ok","no","Female","768","legacy","yes","no","47","47","1","5","D:/core/Research/OpenSci/PSA/2018/2017_submission_orientation_generalicity/EXPDATA/raw_data/PP/subject-2.csv","11","legacy","Kafkaesque Koffka","3.2.6","yes","5a7ce671e83246000deafe81","0","0","j","space","NA","j","NA","space","f","NA","space","433","787","NA","433","NA","802","606","NA","796","2","legacy","1024","2","48000","-16","EXP","2","even","NA","16608","1255","1259","4010","16599","16599","62443","NA","28085","100098","25629","17415","27272","100599","100097","16609","28086","100599","99504","93694","101034","NA","17415","27243","17428","25628","17428","17427","17415","NA","27274","26135","26135","26743","NA","NA","101534","NA","16610","NA","5385","Orientation_PSA2018","14","11268","24","yes","1024","2002"
