"subject_nr","PPList","Identical","Orientation1","Orientation2","Picture1","Picture2","response","correct","response_time","gender","year","month","fullscreen","File","opensesame_codename","opensesame_version","experiment_file"
1,"PP_LIST1.csv","F","F","F","watch.jpg","skirt.jpg","j",0,362,"Male",1002,9,"no","subject-1.csv","Kafkaesque Koffka","3.2.6","OrientationCrossLanguages_2018PSA_PP_1.1.0.osexp"
1,"PP_LIST1.csv","F","F","F","wrench.jpg","piano.jpg","j",0,250,"Male",1002,9,"no","subject-1.csv","Kafkaesque Koffka","3.2.6","OrientationCrossLanguages_2018PSA_PP_1.1.0.osexp"
1,"PP_LIST1.csv","Y","V","V","clothespinV.jpg","clothespinV.jpg","j",1,362,"Male",1002,9,"no","subject-1.csv","Kafkaesque Koffka","3.2.6","OrientationCrossLanguages_2018PSA_PP_1.1.0.osexp"
1,"PP_LIST1.csv","Y","V","V","crayonV.jpg","crayonV.jpg","j",1,320,"Male",1002,9,"no","subject-1.csv","Kafkaesque Koffka","3.2.6","OrientationCrossLanguages_2018PSA_PP_1.1.0.osexp"
1,"PP_LIST1.csv","F","F","F","tiger.jpg","wndmil.jpg","j",0,355,"Male",1002,9,"no","subject-1.csv","Kafkaesque Koffka","3.2.6","OrientationCrossLanguages_2018PSA_PP_1.1.0.osexp"
1,"PP_LIST1.csv","F","F","F","spider.jpg","couch.jpg","j",0,323,"Male",1002,9,"no","subject-1.csv","Kafkaesque Koffka","3.2.6","OrientationCrossLanguages_2018PSA_PP_1.1.0.osexp"
1,"PP_LIST1.csv","Y","H","H","bowlH.jpg","bowlH.jpg","j",1,302,"Male",1002,9,"no","subject-1.csv","Kafkaesque Koffka","3.2.6","OrientationCrossLanguages_2018PSA_PP_1.1.0.osexp"
1,"PP_LIST1.csv","N","H","V","glassH.jpg","glassV.jpg","j",1,455,"Male",1002,9,"no","subject-1.csv","Kafkaesque Koffka","3.2.6","OrientationCrossLanguages_2018PSA_PP_1.1.0.osexp"
1,"PP_LIST1.csv","F","F","F","skirt.jpg","tlphon.jpg","j",0,249,"Male",1002,9,"no","subject-1.csv","Kafkaesque Koffka","3.2.6","OrientationCrossLanguages_2018PSA_PP_1.1.0.osexp"
1,"PP_LIST1.csv","N","H","V","ironH.jpg","ironV.jpg","j",1,467,"Male",1002,9,"no","subject-1.csv","Kafkaesque Koffka","3.2.6","OrientationCrossLanguages_2018PSA_PP_1.1.0.osexp"
1,"PP_LIST1.csv","F","F","F","mitten.jpg","needle.jpg","j",0,318,"Male",1002,9,"no","subject-1.csv","Kafkaesque Koffka","3.2.6","OrientationCrossLanguages_2018PSA_PP_1.1.0.osexp"
1,"PP_LIST1.csv","F","F","F","stove.jpg","ftball.jpg","j",0,361,"Male",1002,9,"no","subject-1.csv","Kafkaesque Koffka","3.2.6","OrientationCrossLanguages_2018PSA_PP_1.1.0.osexp"
1,"PP_LIST1.csv","F","F","F","trmpet.jpg","tapedispenser.jpg","j",0,490,"Male",1002,9,"no","subject-1.csv","Kafkaesque Koffka","3.2.6","OrientationCrossLanguages_2018PSA_PP_1.1.0.osexp"
1,"PP_LIST1.csv","Y","V","V","caterpillarV.jpg","caterpillarV.jpg","j",1,254,"Male",1002,9,"no","subject-1.csv","Kafkaesque Koffka","3.2.6","OrientationCrossLanguages_2018PSA_PP_1.1.0.osexp"
1,"PP_LIST1.csv","F","F","F","nut.jpg","watch.jpg","j",0,290,"Male",1002,9,"no","subject-1.csv","Kafkaesque Koffka","3.2.6","OrientationCrossLanguages_2018PSA_PP_1.1.0.osexp"
1,"PP_LIST1.csv","Y","H","H","bottleH.jpg","bottleH.jpg","j",1,233,"Male",1002,9,"no","subject-1.csv","Kafkaesque Koffka","3.2.6","OrientationCrossLanguages_2018PSA_PP_1.1.0.osexp"
1,"PP_LIST1.csv","F","F","F","couch.jpg","spider.jpg","j",0,239,"Male",1002,9,"no","subject-1.csv","Kafkaesque Koffka","3.2.6","OrientationCrossLanguages_2018PSA_PP_1.1.0.osexp"
1,"PP_LIST1.csv","N","H","V","guitarH.jpg","guitarV.jpg","j",1,218,"Male",1002,9,"no","subject-1.csv","Kafkaesque Koffka","3.2.6","OrientationCrossLanguages_2018PSA_PP_1.1.0.osexp"
1,"PP_LIST1.csv","F","F","F","house.jpg","ring.jpg","j",0,243,"Male",1002,9,"no","subject-1.csv","Kafkaesque Koffka","3.2.6","OrientationCrossLanguages_2018PSA_PP_1.1.0.osexp"
1,"PP_LIST1.csv","F","F","F","piano.jpg","sutcse.jpg","j",0,238,"Male",1002,9,"no","subject-1.csv","Kafkaesque Koffka","3.2.6","OrientationCrossLanguages_2018PSA_PP_1.1.0.osexp"
1,"PP_LIST1.csv","F","F","F","umberella.jpg","flower.jpg","j",0,1366,"Male",1002,9,"no","subject-1.csv","Kafkaesque Koffka","3.2.6","OrientationCrossLanguages_2018PSA_PP_1.1.0.osexp"
1,"PP_LIST1.csv","F","F","F","ring.jpg","stove.jpg","j",0,471,"Male",1002,9,"no","subject-1.csv","Kafkaesque Koffka","3.2.6","OrientationCrossLanguages_2018PSA_PP_1.1.0.osexp"
1,"PP_LIST1.csv","Y","H","H","axeH.jpg","axeH.jpg","j",1,759,"Male",1002,9,"no","subject-1.csv","Kafkaesque Koffka","3.2.6","OrientationCrossLanguages_2018PSA_PP_1.1.0.osexp"
1,"PP_LIST1.csv","N","H","V","pencilH.jpg","pencilV.jpg","j",1,329,"Male",1002,9,"no","subject-1.csv","Kafkaesque Koffka","3.2.6","OrientationCrossLanguages_2018PSA_PP_1.1.0.osexp"
1,"PP_LIST1.csv","N","V","H","saltV.jpg","saltH.jpg","j",1,300,"Male",1002,9,"no","subject-1.csv","Kafkaesque Koffka","3.2.6","OrientationCrossLanguages_2018PSA_PP_1.1.0.osexp"
1,"PP_LIST1.csv","Y","V","V","flashV.jpg","flashV.jpg","j",1,363,"Male",1002,9,"no","subject-1.csv","Kafkaesque Koffka","3.2.6","OrientationCrossLanguages_2018PSA_PP_1.1.0.osexp"
1,"PP_LIST1.csv","F","F","F","tapedispenser.jpg","wrench.jpg","j",0,243,"Male",1002,9,"no","subject-1.csv","Kafkaesque Koffka","3.2.6","OrientationCrossLanguages_2018PSA_PP_1.1.0.osexp"
1,"PP_LIST1.csv","F","F","F","wndmil.jpg","mitten.jpg","j",0,277,"Male",1002,9,"no","subject-1.csv","Kafkaesque Koffka","3.2.6","OrientationCrossLanguages_2018PSA_PP_1.1.0.osexp"
1,"PP_LIST1.csv","N","H","V","keyH.jpg","keyV.jpg","j",1,256,"Male",1002,9,"no","subject-1.csv","Kafkaesque Koffka","3.2.6","OrientationCrossLanguages_2018PSA_PP_1.1.0.osexp"
1,"PP_LIST1.csv","Y","V","V","fire_extinguisherV.jpg","fire_extinguisherV.jpg","j",1,314,"Male",1002,9,"no","subject-1.csv","Kafkaesque Koffka","3.2.6","OrientationCrossLanguages_2018PSA_PP_1.1.0.osexp"
1,"PP_LIST1.csv","N","V","H","scssorV.jpg","scssorH.jpg","j",1,364,"Male",1002,9,"no","subject-1.csv","Kafkaesque Koffka","3.2.6","OrientationCrossLanguages_2018PSA_PP_1.1.0.osexp"
1,"PP_LIST1.csv","N","V","H","penV.jpg","penH.jpg","j",1,451,"Male",1002,9,"no","subject-1.csv","Kafkaesque Koffka","3.2.6","OrientationCrossLanguages_2018PSA_PP_1.1.0.osexp"
1,"PP_LIST1.csv","F","F","F","ladder.jpg","house.jpg","j",0,319,"Male",1002,9,"no","subject-1.csv","Kafkaesque Koffka","3.2.6","OrientationCrossLanguages_2018PSA_PP_1.1.0.osexp"
1,"PP_LIST1.csv","F","F","F","buggy.jpg","glass.jpg","j",0,424,"Male",1002,9,"no","subject-1.csv","Kafkaesque Koffka","3.2.6","OrientationCrossLanguages_2018PSA_PP_1.1.0.osexp"
1,"PP_LIST1.csv","F","F","F","needle.jpg","tiger.jpg","j",0,320,"Male",1002,9,"no","subject-1.csv","Kafkaesque Koffka","3.2.6","OrientationCrossLanguages_2018PSA_PP_1.1.0.osexp"
1,"PP_LIST1.csv","Y","H","H","broomH.jpg","broomH.jpg","j",1,356,"Male",1002,9,"no","subject-1.csv","Kafkaesque Koffka","3.2.6","OrientationCrossLanguages_2018PSA_PP_1.1.0.osexp"
1,"PP_LIST1.csv","Y","V","V","brushV.jpg","brushV.jpg","j",1,443,"Male",1002,9,"no","subject-1.csv","Kafkaesque Koffka","3.2.6","OrientationCrossLanguages_2018PSA_PP_1.1.0.osexp"
1,"PP_LIST1.csv","F","F","F","knife.jpg","ladder.jpg","j",0,543,"Male",1002,9,"no","subject-1.csv","Kafkaesque Koffka","3.2.6","OrientationCrossLanguages_2018PSA_PP_1.1.0.osexp"
1,"PP_LIST1.csv","F","F","F","ftball.jpg","nut.jpg","j",0,318,"Male",1002,9,"no","subject-1.csv","Kafkaesque Koffka","3.2.6","OrientationCrossLanguages_2018PSA_PP_1.1.0.osexp"
1,"PP_LIST1.csv","N","V","H","plateV.jpg","plateH.jpg","j",1,321,"Male",1002,9,"no","subject-1.csv","Kafkaesque Koffka","3.2.6","OrientationCrossLanguages_2018PSA_PP_1.1.0.osexp"
1,"PP_LIST1.csv","N","V","H","tireV.jpg","tireH.jpg","j",1,362,"Male",1002,9,"no","subject-1.csv","Kafkaesque Koffka","3.2.6","OrientationCrossLanguages_2018PSA_PP_1.1.0.osexp"
1,"PP_LIST1.csv","N","V","H","screwV.jpg","screwH.jpg","j",1,376,"Male",1002,9,"no","subject-1.csv","Kafkaesque Koffka","3.2.6","OrientationCrossLanguages_2018PSA_PP_1.1.0.osexp"
1,"PP_LIST1.csv","N","H","V","nailH.jpg","nailV.jpg","j",1,376,"Male",1002,9,"no","subject-1.csv","Kafkaesque Koffka","3.2.6","OrientationCrossLanguages_2018PSA_PP_1.1.0.osexp"
1,"PP_LIST1.csv","F","F","F","tlphon.jpg","knife.jpg","j",0,561,"Male",1002,9,"no","subject-1.csv","Kafkaesque Koffka","3.2.6","OrientationCrossLanguages_2018PSA_PP_1.1.0.osexp"
1,"PP_LIST1.csv","F","F","F","pumpkin.jpg","trmpet.jpg","j",0,205,"Male",1002,9,"no","subject-1.csv","Kafkaesque Koffka","3.2.6","OrientationCrossLanguages_2018PSA_PP_1.1.0.osexp"
1,"PP_LIST1.csv","Y","H","H","bookH.jpg","bookH.jpg","j",1,581,"Male",1002,9,"no","subject-1.csv","Kafkaesque Koffka","3.2.6","OrientationCrossLanguages_2018PSA_PP_1.1.0.osexp"
1,"PP_LIST1.csv","Y","H","H","batH.jpg","batH.jpg","j",1,381,"Male",1002,9,"no","subject-1.csv","Kafkaesque Koffka","3.2.6","OrientationCrossLanguages_2018PSA_PP_1.1.0.osexp"
1,"PP_LIST1.csv","F","F","F","sutcse.jpg","pumpkin.jpg","j",0,455,"Male",1002,9,"no","subject-1.csv","Kafkaesque Koffka","3.2.6","OrientationCrossLanguages_2018PSA_PP_1.1.0.osexp"
2,"PP_LIST2.csv","F","F","F","watch.jpg","skirt.jpg","f",1,756,"Female",2002,11,"no","subject-2.csv","Kafkaesque Koffka","3.2.6","OrientationCrossLanguages_2018PSA_PP_1.1.0.osexp"
2,"PP_LIST2.csv","F","F","F","wrench.jpg","piano.jpg","j",0,444,"Female",2002,11,"no","subject-2.csv","Kafkaesque Koffka","3.2.6","OrientationCrossLanguages_2018PSA_PP_1.1.0.osexp"
2,"PP_LIST2.csv","N","H","V","clothespinH.jpg","clothespinV.jpg","j",1,408,"Female",2002,11,"no","subject-2.csv","Kafkaesque Koffka","3.2.6","OrientationCrossLanguages_2018PSA_PP_1.1.0.osexp"
2,"PP_LIST2.csv","N","H","V","crayonH.jpg","crayonV.jpg","j",1,362,"Female",2002,11,"no","subject-2.csv","Kafkaesque Koffka","3.2.6","OrientationCrossLanguages_2018PSA_PP_1.1.0.osexp"
2,"PP_LIST2.csv","F","F","F","tiger.jpg","wndmil.jpg","j",0,260,"Female",2002,11,"no","subject-2.csv","Kafkaesque Koffka","3.2.6","OrientationCrossLanguages_2018PSA_PP_1.1.0.osexp"
2,"PP_LIST2.csv","F","F","F","spider.jpg","couch.jpg","j",0,238,"Female",2002,11,"no","subject-2.csv","Kafkaesque Koffka","3.2.6","OrientationCrossLanguages_2018PSA_PP_1.1.0.osexp"
2,"PP_LIST2.csv","Y","V","V","bowlV.jpg","bowlV.jpg","j",1,195,"Female",2002,11,"no","subject-2.csv","Kafkaesque Koffka","3.2.6","OrientationCrossLanguages_2018PSA_PP_1.1.0.osexp"
2,"PP_LIST2.csv","N","V","H","glassV.jpg","glassH.jpg","j",1,264,"Female",2002,11,"no","subject-2.csv","Kafkaesque Koffka","3.2.6","OrientationCrossLanguages_2018PSA_PP_1.1.0.osexp"
2,"PP_LIST2.csv","F","F","F","skirt.jpg","tlphon.jpg","j",0,184,"Female",2002,11,"no","subject-2.csv","Kafkaesque Koffka","3.2.6","OrientationCrossLanguages_2018PSA_PP_1.1.0.osexp"
2,"PP_LIST2.csv","N","V","H","ironV.jpg","ironH.jpg","j",1,224,"Female",2002,11,"no","subject-2.csv","Kafkaesque Koffka","3.2.6","OrientationCrossLanguages_2018PSA_PP_1.1.0.osexp"
2,"PP_LIST2.csv","F","F","F","mitten.jpg","needle.jpg","j",0,273,"Female",2002,11,"no","subject-2.csv","Kafkaesque Koffka","3.2.6","OrientationCrossLanguages_2018PSA_PP_1.1.0.osexp"
2,"PP_LIST2.csv","F","F","F","stove.jpg","ftball.jpg","j",0,239,"Female",2002,11,"no","subject-2.csv","Kafkaesque Koffka","3.2.6","OrientationCrossLanguages_2018PSA_PP_1.1.0.osexp"
2,"PP_LIST2.csv","F","F","F","trmpet.jpg","tapedispenser.jpg","j",0,280,"Female",2002,11,"no","subject-2.csv","Kafkaesque Koffka","3.2.6","OrientationCrossLanguages_2018PSA_PP_1.1.0.osexp"
2,"PP_LIST2.csv","N","H","V","caterpillarH.jpg","caterpillarV.jpg","j",1,214,"Female",2002,11,"no","subject-2.csv","Kafkaesque Koffka","3.2.6","OrientationCrossLanguages_2018PSA_PP_1.1.0.osexp"
2,"PP_LIST2.csv","F","F","F","nut.jpg","watch.jpg","j",0,260,"Female",2002,11,"no","subject-2.csv","Kafkaesque Koffka","3.2.6","OrientationCrossLanguages_2018PSA_PP_1.1.0.osexp"
2,"PP_LIST2.csv","Y","V","V","bottleV.jpg","bottleV.jpg","j",1,297,"Female",2002,11,"no","subject-2.csv","Kafkaesque Koffka","3.2.6","OrientationCrossLanguages_2018PSA_PP_1.1.0.osexp"
2,"PP_LIST2.csv","F","F","F","couch.jpg","spider.jpg","j",0,147,"Female",2002,11,"no","subject-2.csv","Kafkaesque Koffka","3.2.6","OrientationCrossLanguages_2018PSA_PP_1.1.0.osexp"
2,"PP_LIST2.csv","N","V","H","guitarV.jpg","guitarH.jpg","j",1,381,"Female",2002,11,"no","subject-2.csv","Kafkaesque Koffka","3.2.6","OrientationCrossLanguages_2018PSA_PP_1.1.0.osexp"
2,"PP_LIST2.csv","F","F","F","house.jpg","ring.jpg","j",0,279,"Female",2002,11,"no","subject-2.csv","Kafkaesque Koffka","3.2.6","OrientationCrossLanguages_2018PSA_PP_1.1.0.osexp"
2,"PP_LIST2.csv","F","F","F","piano.jpg","sutcse.jpg","j",0,278,"Female",2002,11,"no","subject-2.csv","Kafkaesque Koffka","3.2.6","OrientationCrossLanguages_2018PSA_PP_1.1.0.osexp"
2,"PP_LIST2.csv","F","F","F","umberella.jpg","flower.jpg","j",0,365,"Female",2002,11,"no","subject-2.csv","Kafkaesque Koffka","3.2.6","OrientationCrossLanguages_2018PSA_PP_1.1.0.osexp"
2,"PP_LIST2.csv","F","F","F","ring.jpg","stove.jpg","j",0,429,"Female",2002,11,"no","subject-2.csv","Kafkaesque Koffka","3.2.6","OrientationCrossLanguages_2018PSA_PP_1.1.0.osexp"
2,"PP_LIST2.csv","Y","V","V","axeV.jpg","axeV.jpg","j",1,396,"Female",2002,11,"no","subject-2.csv","Kafkaesque Koffka","3.2.6","OrientationCrossLanguages_2018PSA_PP_1.1.0.osexp"
2,"PP_LIST2.csv","N","V","H","pencilV.jpg","pencilH.jpg","j",1,533,"Female",2002,11,"no","subject-2.csv","Kafkaesque Koffka","3.2.6","OrientationCrossLanguages_2018PSA_PP_1.1.0.osexp"
2,"PP_LIST2.csv","Y","H","H","saltH.jpg","saltH.jpg","j",1,738,"Female",2002,11,"no","subject-2.csv","Kafkaesque Koffka","3.2.6","OrientationCrossLanguages_2018PSA_PP_1.1.0.osexp"
2,"PP_LIST2.csv","N","H","V","flashH.jpg","flashV.jpg","j",1,457,"Female",2002,11,"no","subject-2.csv","Kafkaesque Koffka","3.2.6","OrientationCrossLanguages_2018PSA_PP_1.1.0.osexp"
2,"PP_LIST2.csv","F","F","F","tapedispenser.jpg","wrench.jpg","j",0,322,"Female",2002,11,"no","subject-2.csv","Kafkaesque Koffka","3.2.6","OrientationCrossLanguages_2018PSA_PP_1.1.0.osexp"
2,"PP_LIST2.csv","F","F","F","wndmil.jpg","mitten.jpg","j",0,314,"Female",2002,11,"no","subject-2.csv","Kafkaesque Koffka","3.2.6","OrientationCrossLanguages_2018PSA_PP_1.1.0.osexp"
2,"PP_LIST2.csv","N","V","H","keyV.jpg","keyH.jpg","j",1,316,"Female",2002,11,"no","subject-2.csv","Kafkaesque Koffka","3.2.6","OrientationCrossLanguages_2018PSA_PP_1.1.0.osexp"
2,"PP_LIST2.csv","N","H","V","fire_extinguisherH.jpg","fire_extinguisherV.jpg","j",1,432,"Female",2002,11,"no","subject-2.csv","Kafkaesque Koffka","3.2.6","OrientationCrossLanguages_2018PSA_PP_1.1.0.osexp"
2,"PP_LIST2.csv","Y","H","H","scssorH.jpg","scssorH.jpg","j",1,505,"Female",2002,11,"no","subject-2.csv","Kafkaesque Koffka","3.2.6","OrientationCrossLanguages_2018PSA_PP_1.1.0.osexp"
2,"PP_LIST2.csv","Y","H","H","penH.jpg","penH.jpg","j",1,552,"Female",2002,11,"no","subject-2.csv","Kafkaesque Koffka","3.2.6","OrientationCrossLanguages_2018PSA_PP_1.1.0.osexp"
2,"PP_LIST2.csv","F","F","F","ladder.jpg","house.jpg","j",0,334,"Female",2002,11,"no","subject-2.csv","Kafkaesque Koffka","3.2.6","OrientationCrossLanguages_2018PSA_PP_1.1.0.osexp"
2,"PP_LIST2.csv","F","F","F","buggy.jpg","glass.jpg","j",0,452,"Female",2002,11,"no","subject-2.csv","Kafkaesque Koffka","3.2.6","OrientationCrossLanguages_2018PSA_PP_1.1.0.osexp"
2,"PP_LIST2.csv","F","F","F","needle.jpg","tiger.jpg","j",0,455,"Female",2002,11,"no","subject-2.csv","Kafkaesque Koffka","3.2.6","OrientationCrossLanguages_2018PSA_PP_1.1.0.osexp"
2,"PP_LIST2.csv","Y","V","V","broomV.jpg","broomV.jpg","j",1,432,"Female",2002,11,"no","subject-2.csv","Kafkaesque Koffka","3.2.6","OrientationCrossLanguages_2018PSA_PP_1.1.0.osexp"
2,"PP_LIST2.csv","N","H","V","brushH.jpg","brushV.jpg","j",1,406,"Female",2002,11,"no","subject-2.csv","Kafkaesque Koffka","3.2.6","OrientationCrossLanguages_2018PSA_PP_1.1.0.osexp"
2,"PP_LIST2.csv","F","F","F","knife.jpg","ladder.jpg","j",0,410,"Female",2002,11,"no","subject-2.csv","Kafkaesque Koffka","3.2.6","OrientationCrossLanguages_2018PSA_PP_1.1.0.osexp"
2,"PP_LIST2.csv","F","F","F","ftball.jpg","nut.jpg","j",0,587,"Female",2002,11,"no","subject-2.csv","Kafkaesque Koffka","3.2.6","OrientationCrossLanguages_2018PSA_PP_1.1.0.osexp"
2,"PP_LIST2.csv","Y","H","H","plateH.jpg","plateH.jpg","j",1,777,"Female",2002,11,"no","subject-2.csv","Kafkaesque Koffka","3.2.6","OrientationCrossLanguages_2018PSA_PP_1.1.0.osexp"
2,"PP_LIST2.csv","Y","H","H","tireH.jpg","tireH.jpg","j",1,195,"Female",2002,11,"no","subject-2.csv","Kafkaesque Koffka","3.2.6","OrientationCrossLanguages_2018PSA_PP_1.1.0.osexp"
2,"PP_LIST2.csv","Y","H","H","screwH.jpg","screwH.jpg","j",1,232,"Female",2002,11,"no","subject-2.csv","Kafkaesque Koffka","3.2.6","OrientationCrossLanguages_2018PSA_PP_1.1.0.osexp"
2,"PP_LIST2.csv","N","V","H","nailV.jpg","nailH.jpg","j",1,1527,"Female",2002,11,"no","subject-2.csv","Kafkaesque Koffka","3.2.6","OrientationCrossLanguages_2018PSA_PP_1.1.0.osexp"
2,"PP_LIST2.csv","F","F","F","tlphon.jpg","knife.jpg","j",0,408,"Female",2002,11,"no","subject-2.csv","Kafkaesque Koffka","3.2.6","OrientationCrossLanguages_2018PSA_PP_1.1.0.osexp"
2,"PP_LIST2.csv","F","F","F","pumpkin.jpg","trmpet.jpg","j",0,278,"Female",2002,11,"no","subject-2.csv","Kafkaesque Koffka","3.2.6","OrientationCrossLanguages_2018PSA_PP_1.1.0.osexp"
2,"PP_LIST2.csv","Y","V","V","bookV.jpg","bookV.jpg","j",1,389,"Female",2002,11,"no","subject-2.csv","Kafkaesque Koffka","3.2.6","OrientationCrossLanguages_2018PSA_PP_1.1.0.osexp"
2,"PP_LIST2.csv","Y","V","V","batV.jpg","batV.jpg","j",1,317,"Female",2002,11,"no","subject-2.csv","Kafkaesque Koffka","3.2.6","OrientationCrossLanguages_2018PSA_PP_1.1.0.osexp"
2,"PP_LIST2.csv","F","F","F","sutcse.jpg","pumpkin.jpg","j",0,433,"Female",2002,11,"no","subject-2.csv","Kafkaesque Koffka","3.2.6","OrientationCrossLanguages_2018PSA_PP_1.1.0.osexp"
3,"PP_LIST3.csv","F","F","F","watch.jpg","skirt.jpg","f",1,864,"Male",1997,6,"no","subject-3.csv","Kafkaesque Koffka","3.2.6","OrientationCrossLanguages_2018PSA_PP_1.1.0.osexp"
3,"PP_LIST3.csv","F","F","F","wrench.jpg","piano.jpg","j",0,282,"Male",1997,6,"no","subject-3.csv","Kafkaesque Koffka","3.2.6","OrientationCrossLanguages_2018PSA_PP_1.1.0.osexp"
3,"PP_LIST3.csv","N","V","H","clothespinV.jpg","clothespinH.jpg","j",1,323,"Male",1997,6,"no","subject-3.csv","Kafkaesque Koffka","3.2.6","OrientationCrossLanguages_2018PSA_PP_1.1.0.osexp"
3,"PP_LIST3.csv","N","V","H","crayonV.jpg","crayonH.jpg","j",1,369,"Male",1997,6,"no","subject-3.csv","Kafkaesque Koffka","3.2.6","OrientationCrossLanguages_2018PSA_PP_1.1.0.osexp"
3,"PP_LIST3.csv","F","F","F","tiger.jpg","wndmil.jpg","j",0,310,"Male",1997,6,"no","subject-3.csv","Kafkaesque Koffka","3.2.6","OrientationCrossLanguages_2018PSA_PP_1.1.0.osexp"
3,"PP_LIST3.csv","F","F","F","spider.jpg","couch.jpg","j",0,318,"Male",1997,6,"no","subject-3.csv","Kafkaesque Koffka","3.2.6","OrientationCrossLanguages_2018PSA_PP_1.1.0.osexp"
3,"PP_LIST3.csv","N","H","V","bowlH.jpg","bowlV.jpg","j",1,395,"Male",1997,6,"no","subject-3.csv","Kafkaesque Koffka","3.2.6","OrientationCrossLanguages_2018PSA_PP_1.1.0.osexp"
3,"PP_LIST3.csv","Y","H","H","glassH.jpg","glassH.jpg","j",1,312,"Male",1997,6,"no","subject-3.csv","Kafkaesque Koffka","3.2.6","OrientationCrossLanguages_2018PSA_PP_1.1.0.osexp"
3,"PP_LIST3.csv","F","F","F","skirt.jpg","tlphon.jpg","j",0,305,"Male",1997,6,"no","subject-3.csv","Kafkaesque Koffka","3.2.6","OrientationCrossLanguages_2018PSA_PP_1.1.0.osexp"
3,"PP_LIST3.csv","Y","H","H","ironH.jpg","ironH.jpg","j",1,248,"Male",1997,6,"no","subject-3.csv","Kafkaesque Koffka","3.2.6","OrientationCrossLanguages_2018PSA_PP_1.1.0.osexp"
3,"PP_LIST3.csv","F","F","F","mitten.jpg","needle.jpg","j",0,351,"Male",1997,6,"no","subject-3.csv","Kafkaesque Koffka","3.2.6","OrientationCrossLanguages_2018PSA_PP_1.1.0.osexp"
3,"PP_LIST3.csv","F","F","F","stove.jpg","ftball.jpg","j",0,246,"Male",1997,6,"no","subject-3.csv","Kafkaesque Koffka","3.2.6","OrientationCrossLanguages_2018PSA_PP_1.1.0.osexp"
3,"PP_LIST3.csv","F","F","F","trmpet.jpg","tapedispenser.jpg","j",0,338,"Male",1997,6,"no","subject-3.csv","Kafkaesque Koffka","3.2.6","OrientationCrossLanguages_2018PSA_PP_1.1.0.osexp"
3,"PP_LIST3.csv","N","V","H","caterpillarV.jpg","caterpillarH.jpg","j",1,230,"Male",1997,6,"no","subject-3.csv","Kafkaesque Koffka","3.2.6","OrientationCrossLanguages_2018PSA_PP_1.1.0.osexp"
3,"PP_LIST3.csv","F","F","F","nut.jpg","watch.jpg","j",0,429,"Male",1997,6,"no","subject-3.csv","Kafkaesque Koffka","3.2.6","OrientationCrossLanguages_2018PSA_PP_1.1.0.osexp"
3,"PP_LIST3.csv","N","H","V","bottleH.jpg","bottleV.jpg","j",1,384,"Male",1997,6,"no","subject-3.csv","Kafkaesque Koffka","3.2.6","OrientationCrossLanguages_2018PSA_PP_1.1.0.osexp"
3,"PP_LIST3.csv","F","F","F","couch.jpg","spider.jpg","j",0,231,"Male",1997,6,"no","subject-3.csv","Kafkaesque Koffka","3.2.6","OrientationCrossLanguages_2018PSA_PP_1.1.0.osexp"
3,"PP_LIST3.csv","Y","H","H","guitarH.jpg","guitarH.jpg","j",1,237,"Male",1997,6,"no","subject-3.csv","Kafkaesque Koffka","3.2.6","OrientationCrossLanguages_2018PSA_PP_1.1.0.osexp"
3,"PP_LIST3.csv","F","F","F","house.jpg","ring.jpg","j",0,131,"Male",1997,6,"no","subject-3.csv","Kafkaesque Koffka","3.2.6","OrientationCrossLanguages_2018PSA_PP_1.1.0.osexp"
3,"PP_LIST3.csv","F","F","F","piano.jpg","sutcse.jpg","j",0,248,"Male",1997,6,"no","subject-3.csv","Kafkaesque Koffka","3.2.6","OrientationCrossLanguages_2018PSA_PP_1.1.0.osexp"
3,"PP_LIST3.csv","F","F","F","umberella.jpg","flower.jpg","j",0,273,"Male",1997,6,"no","subject-3.csv","Kafkaesque Koffka","3.2.6","OrientationCrossLanguages_2018PSA_PP_1.1.0.osexp"
3,"PP_LIST3.csv","F","F","F","ring.jpg","stove.jpg","j",0,259,"Male",1997,6,"no","subject-3.csv","Kafkaesque Koffka","3.2.6","OrientationCrossLanguages_2018PSA_PP_1.1.0.osexp"
3,"PP_LIST3.csv","N","H","V","axeH.jpg","axeV.jpg","j",1,470,"Male",1997,6,"no","subject-3.csv","Kafkaesque Koffka","3.2.6","OrientationCrossLanguages_2018PSA_PP_1.1.0.osexp"
3,"PP_LIST3.csv","Y","H","H","pencilH.jpg","pencilH.jpg","j",1,223,"Male",1997,6,"no","subject-3.csv","Kafkaesque Koffka","3.2.6","OrientationCrossLanguages_2018PSA_PP_1.1.0.osexp"
3,"PP_LIST3.csv","Y","V","V","saltV.jpg","saltV.jpg","j",1,429,"Male",1997,6,"no","subject-3.csv","Kafkaesque Koffka","3.2.6","OrientationCrossLanguages_2018PSA_PP_1.1.0.osexp"
3,"PP_LIST3.csv","N","V","H","flashV.jpg","flashH.jpg","j",1,324,"Male",1997,6,"no","subject-3.csv","Kafkaesque Koffka","3.2.6","OrientationCrossLanguages_2018PSA_PP_1.1.0.osexp"
3,"PP_LIST3.csv","F","F","F","tapedispenser.jpg","wrench.jpg","j",0,247,"Male",1997,6,"no","subject-3.csv","Kafkaesque Koffka","3.2.6","OrientationCrossLanguages_2018PSA_PP_1.1.0.osexp"
3,"PP_LIST3.csv","F","F","F","wndmil.jpg","mitten.jpg","j",0,317,"Male",1997,6,"no","subject-3.csv","Kafkaesque Koffka","3.2.6","OrientationCrossLanguages_2018PSA_PP_1.1.0.osexp"
3,"PP_LIST3.csv","Y","H","H","keyH.jpg","keyH.jpg","j",1,323,"Male",1997,6,"no","subject-3.csv","Kafkaesque Koffka","3.2.6","OrientationCrossLanguages_2018PSA_PP_1.1.0.osexp"
3,"PP_LIST3.csv","N","V","H","fire_extinguisherV.jpg","fire_extinguisherH.jpg","j",1,455,"Male",1997,6,"no","subject-3.csv","Kafkaesque Koffka","3.2.6","OrientationCrossLanguages_2018PSA_PP_1.1.0.osexp"
3,"PP_LIST3.csv","Y","V","V","scssorV.jpg","scssorV.jpg","j",1,112,"Male",1997,6,"no","subject-3.csv","Kafkaesque Koffka","3.2.6","OrientationCrossLanguages_2018PSA_PP_1.1.0.osexp"
3,"PP_LIST3.csv","Y","V","V","penV.jpg","penV.jpg","j",1,417,"Male",1997,6,"no","subject-3.csv","Kafkaesque Koffka","3.2.6","OrientationCrossLanguages_2018PSA_PP_1.1.0.osexp"
3,"PP_LIST3.csv","F","F","F","ladder.jpg","house.jpg","j",0,628,"Male",1997,6,"no","subject-3.csv","Kafkaesque Koffka","3.2.6","OrientationCrossLanguages_2018PSA_PP_1.1.0.osexp"
3,"PP_LIST3.csv","F","F","F","buggy.jpg","glass.jpg","j",0,509,"Male",1997,6,"no","subject-3.csv","Kafkaesque Koffka","3.2.6","OrientationCrossLanguages_2018PSA_PP_1.1.0.osexp"
3,"PP_LIST3.csv","F","F","F","needle.jpg","tiger.jpg","j",0,740,"Male",1997,6,"no","subject-3.csv","Kafkaesque Koffka","3.2.6","OrientationCrossLanguages_2018PSA_PP_1.1.0.osexp"
3,"PP_LIST3.csv","N","H","V","broomH.jpg","broomV.jpg","j",1,810,"Male",1997,6,"no","subject-3.csv","Kafkaesque Koffka","3.2.6","OrientationCrossLanguages_2018PSA_PP_1.1.0.osexp"
3,"PP_LIST3.csv","N","V","H","brushV.jpg","brushH.jpg","j",1,526,"Male",1997,6,"no","subject-3.csv","Kafkaesque Koffka","3.2.6","OrientationCrossLanguages_2018PSA_PP_1.1.0.osexp"
3,"PP_LIST3.csv","F","F","F","knife.jpg","ladder.jpg","j",0,328,"Male",1997,6,"no","subject-3.csv","Kafkaesque Koffka","3.2.6","OrientationCrossLanguages_2018PSA_PP_1.1.0.osexp"
3,"PP_LIST3.csv","F","F","F","ftball.jpg","nut.jpg","j",0,511,"Male",1997,6,"no","subject-3.csv","Kafkaesque Koffka","3.2.6","OrientationCrossLanguages_2018PSA_PP_1.1.0.osexp"
3,"PP_LIST3.csv","Y","V","V","plateV.jpg","plateV.jpg","j",1,606,"Male",1997,6,"no","subject-3.csv","Kafkaesque Koffka","3.2.6","OrientationCrossLanguages_2018PSA_PP_1.1.0.osexp"
3,"PP_LIST3.csv","Y","V","V","tireV.jpg","tireV.jpg","j",1,333,"Male",1997,6,"no","subject-3.csv","Kafkaesque Koffka","3.2.6","OrientationCrossLanguages_2018PSA_PP_1.1.0.osexp"
3,"PP_LIST3.csv","Y","V","V","screwV.jpg","screwV.jpg","j",1,536,"Male",1997,6,"no","subject-3.csv","Kafkaesque Koffka","3.2.6","OrientationCrossLanguages_2018PSA_PP_1.1.0.osexp"
3,"PP_LIST3.csv","Y","H","H","nailH.jpg","nailH.jpg","j",1,525,"Male",1997,6,"no","subject-3.csv","Kafkaesque Koffka","3.2.6","OrientationCrossLanguages_2018PSA_PP_1.1.0.osexp"
3,"PP_LIST3.csv","F","F","F","tlphon.jpg","knife.jpg","j",0,728,"Male",1997,6,"no","subject-3.csv","Kafkaesque Koffka","3.2.6","OrientationCrossLanguages_2018PSA_PP_1.1.0.osexp"
3,"PP_LIST3.csv","F","F","F","pumpkin.jpg","trmpet.jpg","j",0,396,"Male",1997,6,"no","subject-3.csv","Kafkaesque Koffka","3.2.6","OrientationCrossLanguages_2018PSA_PP_1.1.0.osexp"
3,"PP_LIST3.csv","N","H","V","bookH.jpg","bookV.jpg","j",1,373,"Male",1997,6,"no","subject-3.csv","Kafkaesque Koffka","3.2.6","OrientationCrossLanguages_2018PSA_PP_1.1.0.osexp"
3,"PP_LIST3.csv","N","H","V","batH.jpg","batV.jpg","j",1,700,"Male",1997,6,"no","subject-3.csv","Kafkaesque Koffka","3.2.6","OrientationCrossLanguages_2018PSA_PP_1.1.0.osexp"
3,"PP_LIST3.csv","F","F","F","sutcse.jpg","pumpkin.jpg","j",0,617,"Male",1997,6,"no","subject-3.csv","Kafkaesque Koffka","3.2.6","OrientationCrossLanguages_2018PSA_PP_1.1.0.osexp"
4,"PP_LIST3.csv","F","F","F","watch.jpg","skirt.jpg","j",0,252,"Female",2000,3,"no","subject-4.csv","Kafkaesque Koffka","3.2.6","OrientationCrossLanguages_2018PSA_PP_1.1.0.osexp"
4,"PP_LIST3.csv","F","F","F","wrench.jpg","piano.jpg","j",0,236,"Female",2000,3,"no","subject-4.csv","Kafkaesque Koffka","3.2.6","OrientationCrossLanguages_2018PSA_PP_1.1.0.osexp"
4,"PP_LIST3.csv","N","V","H","clothespinV.jpg","clothespinH.jpg","j",1,490,"Female",2000,3,"no","subject-4.csv","Kafkaesque Koffka","3.2.6","OrientationCrossLanguages_2018PSA_PP_1.1.0.osexp"
4,"PP_LIST3.csv","N","V","H","crayonV.jpg","crayonH.jpg","j",1,531,"Female",2000,3,"no","subject-4.csv","Kafkaesque Koffka","3.2.6","OrientationCrossLanguages_2018PSA_PP_1.1.0.osexp"
4,"PP_LIST3.csv","F","F","F","tiger.jpg","wndmil.jpg","j",0,250,"Female",2000,3,"no","subject-4.csv","Kafkaesque Koffka","3.2.6","OrientationCrossLanguages_2018PSA_PP_1.1.0.osexp"
4,"PP_LIST3.csv","F","F","F","spider.jpg","couch.jpg","j",0,150,"Female",2000,3,"no","subject-4.csv","Kafkaesque Koffka","3.2.6","OrientationCrossLanguages_2018PSA_PP_1.1.0.osexp"
4,"PP_LIST3.csv","N","H","V","bowlH.jpg","bowlV.jpg","j",1,261,"Female",2000,3,"no","subject-4.csv","Kafkaesque Koffka","3.2.6","OrientationCrossLanguages_2018PSA_PP_1.1.0.osexp"
4,"PP_LIST3.csv","Y","H","H","glassH.jpg","glassH.jpg","j",1,267,"Female",2000,3,"no","subject-4.csv","Kafkaesque Koffka","3.2.6","OrientationCrossLanguages_2018PSA_PP_1.1.0.osexp"
4,"PP_LIST3.csv","F","F","F","skirt.jpg","tlphon.jpg","j",0,231,"Female",2000,3,"no","subject-4.csv","Kafkaesque Koffka","3.2.6","OrientationCrossLanguages_2018PSA_PP_1.1.0.osexp"
4,"PP_LIST3.csv","Y","H","H","ironH.jpg","ironH.jpg","j",1,276,"Female",2000,3,"no","subject-4.csv","Kafkaesque Koffka","3.2.6","OrientationCrossLanguages_2018PSA_PP_1.1.0.osexp"
4,"PP_LIST3.csv","F","F","F","mitten.jpg","needle.jpg","j",0,329,"Female",2000,3,"no","subject-4.csv","Kafkaesque Koffka","3.2.6","OrientationCrossLanguages_2018PSA_PP_1.1.0.osexp"
4,"PP_LIST3.csv","F","F","F","stove.jpg","ftball.jpg","j",0,405,"Female",2000,3,"no","subject-4.csv","Kafkaesque Koffka","3.2.6","OrientationCrossLanguages_2018PSA_PP_1.1.0.osexp"
4,"PP_LIST3.csv","F","F","F","trmpet.jpg","tapedispenser.jpg","j",0,354,"Female",2000,3,"no","subject-4.csv","Kafkaesque Koffka","3.2.6","OrientationCrossLanguages_2018PSA_PP_1.1.0.osexp"
4,"PP_LIST3.csv","N","V","H","caterpillarV.jpg","caterpillarH.jpg","j",1,482,"Female",2000,3,"no","subject-4.csv","Kafkaesque Koffka","3.2.6","OrientationCrossLanguages_2018PSA_PP_1.1.0.osexp"
4,"PP_LIST3.csv","F","F","F","nut.jpg","watch.jpg","j",0,976,"Female",2000,3,"no","subject-4.csv","Kafkaesque Koffka","3.2.6","OrientationCrossLanguages_2018PSA_PP_1.1.0.osexp"
4,"PP_LIST3.csv","N","H","V","bottleH.jpg","bottleV.jpg","j",1,424,"Female",2000,3,"no","subject-4.csv","Kafkaesque Koffka","3.2.6","OrientationCrossLanguages_2018PSA_PP_1.1.0.osexp"
4,"PP_LIST3.csv","F","F","F","couch.jpg","spider.jpg","j",0,244,"Female",2000,3,"no","subject-4.csv","Kafkaesque Koffka","3.2.6","OrientationCrossLanguages_2018PSA_PP_1.1.0.osexp"
4,"PP_LIST3.csv","Y","H","H","guitarH.jpg","guitarH.jpg","j",1,353,"Female",2000,3,"no","subject-4.csv","Kafkaesque Koffka","3.2.6","OrientationCrossLanguages_2018PSA_PP_1.1.0.osexp"
4,"PP_LIST3.csv","F","F","F","house.jpg","ring.jpg","j",0,409,"Female",2000,3,"no","subject-4.csv","Kafkaesque Koffka","3.2.6","OrientationCrossLanguages_2018PSA_PP_1.1.0.osexp"
4,"PP_LIST3.csv","F","F","F","piano.jpg","sutcse.jpg","j",0,526,"Female",2000,3,"no","subject-4.csv","Kafkaesque Koffka","3.2.6","OrientationCrossLanguages_2018PSA_PP_1.1.0.osexp"
4,"PP_LIST3.csv","F","F","F","umberella.jpg","flower.jpg","j",0,445,"Female",2000,3,"no","subject-4.csv","Kafkaesque Koffka","3.2.6","OrientationCrossLanguages_2018PSA_PP_1.1.0.osexp"
4,"PP_LIST3.csv","F","F","F","ring.jpg","stove.jpg","j",0,378,"Female",2000,3,"no","subject-4.csv","Kafkaesque Koffka","3.2.6","OrientationCrossLanguages_2018PSA_PP_1.1.0.osexp"
4,"PP_LIST3.csv","N","H","V","axeH.jpg","axeV.jpg","j",1,264,"Female",2000,3,"no","subject-4.csv","Kafkaesque Koffka","3.2.6","OrientationCrossLanguages_2018PSA_PP_1.1.0.osexp"
4,"PP_LIST3.csv","Y","H","H","pencilH.jpg","pencilH.jpg","j",1,516,"Female",2000,3,"no","subject-4.csv","Kafkaesque Koffka","3.2.6","OrientationCrossLanguages_2018PSA_PP_1.1.0.osexp"
4,"PP_LIST3.csv","Y","V","V","saltV.jpg","saltV.jpg","j",1,494,"Female",2000,3,"no","subject-4.csv","Kafkaesque Koffka","3.2.6","OrientationCrossLanguages_2018PSA_PP_1.1.0.osexp"
4,"PP_LIST3.csv","N","V","H","flashV.jpg","flashH.jpg","j",1,348,"Female",2000,3,"no","subject-4.csv","Kafkaesque Koffka","3.2.6","OrientationCrossLanguages_2018PSA_PP_1.1.0.osexp"
4,"PP_LIST3.csv","F","F","F","tapedispenser.jpg","wrench.jpg","j",0,522,"Female",2000,3,"no","subject-4.csv","Kafkaesque Koffka","3.2.6","OrientationCrossLanguages_2018PSA_PP_1.1.0.osexp"
4,"PP_LIST3.csv","F","F","F","wndmil.jpg","mitten.jpg","j",0,348,"Female",2000,3,"no","subject-4.csv","Kafkaesque Koffka","3.2.6","OrientationCrossLanguages_2018PSA_PP_1.1.0.osexp"
4,"PP_LIST3.csv","Y","H","H","keyH.jpg","keyH.jpg","j",1,435,"Female",2000,3,"no","subject-4.csv","Kafkaesque Koffka","3.2.6","OrientationCrossLanguages_2018PSA_PP_1.1.0.osexp"
4,"PP_LIST3.csv","N","V","H","fire_extinguisherV.jpg","fire_extinguisherH.jpg","j",1,574,"Female",2000,3,"no","subject-4.csv","Kafkaesque Koffka","3.2.6","OrientationCrossLanguages_2018PSA_PP_1.1.0.osexp"
4,"PP_LIST3.csv","Y","V","V","scssorV.jpg","scssorV.jpg","j",1,935,"Female",2000,3,"no","subject-4.csv","Kafkaesque Koffka","3.2.6","OrientationCrossLanguages_2018PSA_PP_1.1.0.osexp"
4,"PP_LIST3.csv","Y","V","V","penV.jpg","penV.jpg","j",1,400,"Female",2000,3,"no","subject-4.csv","Kafkaesque Koffka","3.2.6","OrientationCrossLanguages_2018PSA_PP_1.1.0.osexp"
4,"PP_LIST3.csv","F","F","F","ladder.jpg","house.jpg","j",0,356,"Female",2000,3,"no","subject-4.csv","Kafkaesque Koffka","3.2.6","OrientationCrossLanguages_2018PSA_PP_1.1.0.osexp"
4,"PP_LIST3.csv","F","F","F","buggy.jpg","glass.jpg","j",0,422,"Female",2000,3,"no","subject-4.csv","Kafkaesque Koffka","3.2.6","OrientationCrossLanguages_2018PSA_PP_1.1.0.osexp"
4,"PP_LIST3.csv","F","F","F","needle.jpg","tiger.jpg","j",0,381,"Female",2000,3,"no","subject-4.csv","Kafkaesque Koffka","3.2.6","OrientationCrossLanguages_2018PSA_PP_1.1.0.osexp"
4,"PP_LIST3.csv","N","H","V","broomH.jpg","broomV.jpg","j",1,493,"Female",2000,3,"no","subject-4.csv","Kafkaesque Koffka","3.2.6","OrientationCrossLanguages_2018PSA_PP_1.1.0.osexp"
4,"PP_LIST3.csv","N","V","H","brushV.jpg","brushH.jpg","j",1,429,"Female",2000,3,"no","subject-4.csv","Kafkaesque Koffka","3.2.6","OrientationCrossLanguages_2018PSA_PP_1.1.0.osexp"
4,"PP_LIST3.csv","F","F","F","knife.jpg","ladder.jpg","j",0,490,"Female",2000,3,"no","subject-4.csv","Kafkaesque Koffka","3.2.6","OrientationCrossLanguages_2018PSA_PP_1.1.0.osexp"
4,"PP_LIST3.csv","F","F","F","ftball.jpg","nut.jpg","j",0,358,"Female",2000,3,"no","subject-4.csv","Kafkaesque Koffka","3.2.6","OrientationCrossLanguages_2018PSA_PP_1.1.0.osexp"
4,"PP_LIST3.csv","Y","V","V","plateV.jpg","plateV.jpg","j",1,330,"Female",2000,3,"no","subject-4.csv","Kafkaesque Koffka","3.2.6","OrientationCrossLanguages_2018PSA_PP_1.1.0.osexp"
4,"PP_LIST3.csv","Y","V","V","tireV.jpg","tireV.jpg","j",1,362,"Female",2000,3,"no","subject-4.csv","Kafkaesque Koffka","3.2.6","OrientationCrossLanguages_2018PSA_PP_1.1.0.osexp"
4,"PP_LIST3.csv","Y","V","V","screwV.jpg","screwV.jpg","j",1,691,"Female",2000,3,"no","subject-4.csv","Kafkaesque Koffka","3.2.6","OrientationCrossLanguages_2018PSA_PP_1.1.0.osexp"
4,"PP_LIST3.csv","Y","H","H","nailH.jpg","nailH.jpg","j",1,606,"Female",2000,3,"no","subject-4.csv","Kafkaesque Koffka","3.2.6","OrientationCrossLanguages_2018PSA_PP_1.1.0.osexp"
4,"PP_LIST3.csv","F","F","F","tlphon.jpg","knife.jpg","j",0,379,"Female",2000,3,"no","subject-4.csv","Kafkaesque Koffka","3.2.6","OrientationCrossLanguages_2018PSA_PP_1.1.0.osexp"
4,"PP_LIST3.csv","F","F","F","pumpkin.jpg","trmpet.jpg","j",0,363,"Female",2000,3,"no","subject-4.csv","Kafkaesque Koffka","3.2.6","OrientationCrossLanguages_2018PSA_PP_1.1.0.osexp"
4,"PP_LIST3.csv","N","H","V","bookH.jpg","bookV.jpg","j",1,414,"Female",2000,3,"no","subject-4.csv","Kafkaesque Koffka","3.2.6","OrientationCrossLanguages_2018PSA_PP_1.1.0.osexp"
4,"PP_LIST3.csv","N","H","V","batH.jpg","batV.jpg","j",1,283,"Female",2000,3,"no","subject-4.csv","Kafkaesque Koffka","3.2.6","OrientationCrossLanguages_2018PSA_PP_1.1.0.osexp"
4,"PP_LIST3.csv","F","F","F","sutcse.jpg","pumpkin.jpg","j",0,285,"Female",2000,3,"no","subject-4.csv","Kafkaesque Koffka","3.2.6","OrientationCrossLanguages_2018PSA_PP_1.1.0.osexp"
